"Time (s)","Acceleration x (m/s^2)","Acceleration y (m/s^2)","Acceleration z (m/s^2)","Absolute acceleration (m/s^2)"
2.640093700E-2,-3.202843428E0,8.353070259E0,4.599261284E0,1.005908510E1
2.840093700E-2,-3.154959202E0,8.331522942E0,4.630385876E0,1.004034439E1
3.036093700E-2,-3.111863613E0,8.317157745E0,4.637568474E0,1.001827577E1
3.233135400E-2,-3.070863008E0,8.307580948E0,4.637568474E0,9.997656834E0
3.430177100E-2,-3.018190622E0,8.300397873E0,4.649539471E0,9.981197161E0
3.627218700E-2,-2.953547001E0,8.298004150E0,4.659116745E0,9.964320429E0
3.824260400E-2,-2.884115219E0,8.300397873E0,4.663905144E0,9.948202684E0
4.021302100E-2,-2.821866035E0,8.298004150E0,4.661510944E0,9.927209330E0
4.218343700E-2,-2.766799450E0,8.298004150E0,4.649539471E0,9.906072348E0
4.415385400E-2,-2.706944227E0,8.305186272E0,4.635174274E0,9.888807138E0
4.612427100E-2,-2.649483442E0,8.312369347E0,4.623203278E0,9.873664731E0
4.809468700E-2,-2.620753050E0,8.331522942E0,4.639962673E0,9.889988609E0
5.006510400E-2,-2.625541449E0,8.360253334E0,4.687847137E0,9.937968328E0
5.203552100E-2,-2.608782053E0,8.379406929E0,4.707000732E0,9.958717798E0
5.400593700E-2,-2.556109667E0,8.377012253E0,4.678270340E0,9.929463444E0
5.597635400E-2,-2.510320425E0,8.369830132E0,4.630385876E0,9.889198068E0
5.794677100E-2,-2.483984232E0,8.374618530E0,4.599261284E0,9.872062477E0
5.991885400E-2,-2.469619036E0,8.391377449E0,4.592078686E0,9.879343112E0
6.189260400E-2,-2.457648039E0,8.408137321E0,4.589684486E0,9.889489915E0
6.386635400E-2,-2.450465441E0,8.412925720E0,4.580107689E0,9.887339708E0
6.584010400E-2,-2.457648039E0,8.417714119E0,4.568136692E0,9.887659870E0
6.781385400E-2,-2.467224836E0,8.417714119E0,4.553771496E0,9.883417639E0
6.978760400E-2,-2.467224836E0,8.412925720E0,4.537012100E0,9.871625822E0
7.176135400E-2,-2.460042238E0,8.400954247E0,4.520252705E0,9.851929993E0
7.373177100E-2,-2.457648039E0,8.386589050E0,4.503493309E0,9.831396735E0
7.570218700E-2,-2.455253839E0,8.374618530E0,4.486733913E0,9.812914356E0
7.767260400E-2,-2.452859640E0,8.362647057E0,4.469974518E0,9.794440178E0
7.964302100E-2,-2.445677042E0,8.355464935E0,4.469974518E0,9.786511261E0
8.161343700E-2,-2.440888643E0,8.348281860E0,4.477157116E0,9.782468156E0
8.358385400E-2,-2.436100245E0,8.336311340E0,4.479551315E0,9.772156934E0
8.555619800E-2,-2.450465441E0,8.317157745E0,4.438849926E0,9.740805023E0
8.753046900E-2,-2.457648039E0,8.309974670E0,4.424484730E0,9.729942345E0
8.950474000E-2,-2.467224836E0,8.307580948E0,4.419696331E0,9.728145520E0
9.147901000E-2,-2.474407434E0,8.305186272E0,4.446032524E0,9.739918704E0
9.345328100E-2,-2.481590033E0,8.302792549E0,4.486733913E0,9.758352034E0
9.542755200E-2,-2.493561029E0,8.300397873E0,4.517858505E0,9.773714592E0
9.740182300E-2,-2.507926226E0,8.298004150E0,4.544194698E0,9.787557013E0
9.937609400E-2,-2.522291422E0,8.295609474E0,4.577713490E0,9.804822862E0
1.013503650E-1,-2.534561872E0,8.298004150E0,4.613626480E0,9.826821768E0
1.033246350E-1,-2.544138670E0,8.298004150E0,4.649539471E0,9.846203925E0
1.052989060E-1,-2.544138670E0,8.298004150E0,4.680664539E0,9.860939863E0
1.072731770E-1,-2.527379274E0,8.293215752E0,4.709394932E0,9.866279650E0
1.092474480E-1,-2.488772631E0,8.269273758E0,4.740519524E0,9.851264033E0
1.112217190E-1,-2.436100245E0,8.242937088E0,4.766855717E0,9.828708443E0
1.131959900E-1,-2.393004656E0,8.233360291E0,4.793490887E0,9.823046770E0
1.151702600E-1,-2.376245260E0,8.233360291E0,4.815038681E0,9.829514775E0
1.171445310E-1,-2.388216257E0,8.240543365E0,4.817432880E0,9.839603214E0
1.191188020E-1,-2.416946650E0,8.250120163E0,4.807856083E0,9.849954006E0
1.210930730E-1,-2.436100245E0,8.264485359E0,4.795885086E0,9.860873005E0
1.230673440E-1,-2.428917646E0,8.266879082E0,4.807856083E0,9.866935228E0
1.250416150E-1,-2.390610456E0,8.257302284E0,4.834192276E0,9.862427406E0
1.270158850E-1,-2.337938070E0,8.245331764E0,4.860528946E0,9.852725103E0
1.289901560E-1,-2.297236443E0,8.245331764E0,4.879682541E0,9.852618580E0
1.309644270E-1,-2.278082848E0,8.247725487E0,4.886865139E0,9.853734726E0
1.329386980E-1,-2.258929253E0,8.250120163E0,4.877288342E0,9.846582434E0
1.349129690E-1,-2.232593060E0,8.242937088E0,4.846163750E0,9.819154072E0
1.368872400E-1,-2.191891670E0,8.221389771E0,4.810250282E0,9.774157080E0
1.388615100E-1,-2.146401882E0,8.190264702E0,4.783914089E0,9.724881024E0
1.408357810E-1,-2.100912094E0,8.171111107E0,4.759673119E0,9.686866188E0
1.428100520E-1,-2.048239470E0,8.151957512E0,4.730942726E0,9.645284614E0
1.447843230E-1,-1.988384485E0,8.125322342E0,4.704606533E0,9.597283921E0
1.467585940E-1,-1.935412765E0,8.091803551E0,4.685452938E0,9.548642653E0
1.487328650E-1,-1.904288173E0,8.067861557E0,4.661510944E0,9.510330585E0
1.507071350E-1,-1.889922976E0,8.058284760E0,4.635174274E0,9.486443099E0
1.526814060E-1,-1.885134578E0,8.051101685E0,4.606443882E0,9.465373524E0
1.546556770E-1,-1.889922976E0,8.051101685E0,4.584896088E0,9.455861639E0
1.566299480E-1,-1.899499774E0,8.060678482E0,4.577713490E0,9.462457280E0
1.586042190E-1,-1.909076571E0,8.082226753E0,4.582501888E0,9.485055941E0
1.605784900E-1,-1.923441768E0,8.101380348E0,4.596867085E0,9.511213318E0
1.625527600E-1,-1.935412765E0,8.125322342E0,4.620809078E0,9.545604343E0
1.645270310E-1,-1.940201163E0,8.134899139E0,4.642356873E0,9.565168158E0
1.665013020E-1,-1.937806964E0,8.139687538E0,4.661510944E0,9.578063131E0
1.684755730E-1,-1.937806964E0,8.142380714E0,4.680664539E0,9.589686129E0
1.704498440E-1,-1.923441768E0,8.139687538E0,4.687847137E0,9.588016074E0
1.724241150E-1,-1.901893973E0,8.139687538E0,4.675876141E0,9.577866756E0
1.743983850E-1,-1.887528777E0,8.134899139E0,4.656722069E0,9.561611230E0
1.763726560E-1,-1.877951980E0,8.120533943E0,4.635174274E0,9.537012935E0
1.783469270E-1,-1.875557780E0,8.101380348E0,4.613626480E0,9.509764972E0
1.803211980E-1,-1.873163581E0,8.079832077E0,4.594472885E0,9.481645917E0
1.822954690E-1,-1.873163581E0,8.067861557E0,4.580107689E0,9.464487220E0
1.842697400E-1,-1.882740378E0,8.065466881E0,4.582501888E0,9.465505316E0
1.862440100E-1,-1.899499774E0,8.065466881E0,4.596867085E0,9.475813548E0
1.882182810E-1,-1.923441768E0,8.065466881E0,4.623203278E0,9.493439460E0
1.901925520E-1,-1.947383761E0,8.077438354E0,4.680664539E0,9.536557786E0
1.921668230E-1,-1.978807688E0,8.094197273E0,4.757278919E0,9.594968060E0
1.941410940E-1,-2.017114878E0,8.110957146E0,4.836586475E0,9.656549435E0
1.961153650E-1,-2.057816267E0,8.120533943E0,4.915595531E0,9.712917108E0
1.981153650E-1,-2.088941097E0,8.132504463E0,4.996998310E0,9.770941401E0
2.001153650E-1,-2.110488892E0,8.156745911E0,5.076006889E0,9.836285536E0
2.021153650E-1,-2.127248287E0,8.180687904E0,5.145438671E0,9.895674761E0
2.041153650E-1,-2.139219284E0,8.192659378E0,5.205293655E0,9.939366623E0
2.061153650E-1,-2.139219284E0,8.192659378E0,5.253177643E0,9.964527193E0
2.081153650E-1,-2.129642487E0,8.185476303E0,5.298667431E0,9.980645068E0
2.101153650E-1,-2.117671490E0,8.173505783E0,5.334879875E0,9.987575912E0
2.121153650E-1,-2.100912094E0,8.161534309E0,5.346850872E0,9.980645678E0
2.141153650E-1,-2.079364061E0,8.147169113E0,5.351639271E0,9.966953514E0
2.161153650E-1,-2.045845270E0,8.130110741E0,5.349245071E0,9.944777844E0
2.181153650E-1,-2.007538080E0,8.106168747E0,5.342062473E0,9.913516650E0
2.201153650E-1,-1.974019289E0,8.087015152E0,5.327397823E0,9.883204632E0
2.221153650E-1,-1.935412765E0,8.075043678E0,5.301061630E0,9.851568778E0
2.241153650E-1,-1.887528777E0,8.058284760E0,5.265148640E0,9.809205286E0
2.261153650E-1,-1.830067873E0,8.041524887E0,5.212476254E0,9.756289234E0
2.281153650E-1,-1.777395487E0,8.024765968E0,5.152621269E0,9.700799426E0
2.301153650E-1,-1.736694098E0,8.024765968E0,5.092766285E0,9.661741234E0
2.321153650E-1,-1.693598390E0,8.031948090E0,5.028122902E0,9.626135545E0
2.341153650E-1,-1.660079598E0,8.034342766E0,4.973056316E0,9.593634196E0
2.361153650E-1,-1.633743405E0,8.041524887E0,4.932354927E0,9.574098660E0
2.381153650E-1,-1.619378209E0,8.048707962E0,4.903624535E0,9.562929427E0
2.401153650E-1,-1.612195611E0,8.058284760E0,4.879682541E0,9.557532613E0
2.421153650E-1,-1.607407212E0,8.063073158E0,4.870105743E0,9.555879690E0
2.441153650E-1,-1.609801412E0,8.067861557E0,4.872499943E0,9.561543096E0
2.461153650E-1,-1.616984010E0,8.079832077E0,4.882076740E0,9.577734439E0
2.481153650E-1,-1.619378209E0,8.087015152E0,4.894047737E0,9.590302555E0
2.501153650E-1,-1.628955007E0,8.082226753E0,4.910807133E0,9.596453011E0
2.521153650E-1,-1.638531804E0,8.075043678E0,4.920383930E0,9.596941956E0
2.541153650E-1,-1.655291200E0,8.067861557E0,4.915595531E0,9.591322041E0
2.561153650E-1,-1.674444795E0,8.055890083E0,4.908412933E0,9.580900163E0
2.581153650E-1,-1.681627393E0,8.043919563E0,4.910807133E0,9.573324361E0
2.601153650E-1,-1.686415792E0,8.039131165E0,4.922778130E0,9.576292216E0
2.621153650E-1,-1.695992589E0,8.046313286E0,4.937143326E0,9.591398885E0
2.641153650E-1,-1.705569386E0,8.058284760E0,4.953902721E0,9.611767391E0
2.661153650E-1,-1.705569386E0,8.067861557E0,4.975450516E0,9.630911944E0
2.681153650E-1,-1.695992589E0,8.072649956E0,5.011363506E0,9.651830519E0
2.701153650E-1,-1.686415792E0,8.079832077E0,5.054459095E0,9.678597076E0
2.721153650E-1,-1.676838994E0,8.089408875E0,5.097554684E0,9.707491370E0
2.741153650E-1,-1.681627393E0,8.103774071E0,5.140650272E0,9.742962080E0
2.761153650E-1,-1.693598390E0,8.125322342E0,5.178957462E0,9.783186549E0
2.781153650E-1,-1.707963586E0,8.147169113E0,5.210082054E0,9.820308507E0
2.801153650E-1,-1.722328901E0,8.159140587E0,5.243600845E0,9.850550329E0
2.821153650E-1,-1.736694098E0,8.166322708E0,5.269937038E0,9.873052687E0
2.841153650E-1,-1.755847692E0,8.173505783E0,5.291484833E0,9.893887489E0
2.861153650E-1,-1.765424490E0,8.183082581E0,5.310638428E0,9.913750282E0
2.881153650E-1,-1.767818689E0,8.187870979E0,5.329792023E0,9.928398516E0
2.901153650E-1,-1.775001287E0,8.192659378E0,5.344456673E0,9.941504634E0
2.921153650E-1,-1.779789686E0,8.187870979E0,5.361216068E0,9.947437873E0
2.941153650E-1,-1.770212889E0,8.183082581E0,5.375581264E0,9.949541101E0
2.961153650E-1,-1.760636091E0,8.178294182E0,5.380369663E0,9.946492491E0
2.981153650E-1,-1.753453493E0,8.171111107E0,5.373187065E0,9.935431300E0
3.001153650E-1,-1.748665094E0,8.159140587E0,5.361216068E0,9.918268118E0
3.021153650E-1,-1.739088297E0,8.154352188E0,5.344456673E0,9.903590502E0
3.041153650E-1,-1.734299898E0,8.149562836E0,5.317821026E0,9.884451983E0
3.061153650E-1,-1.724723101E0,8.139687538E0,5.286696434E0,9.857907596E0
3.081153650E-1,-1.710357785E0,8.125322342E0,5.260360241E0,9.829424031E0
3.101153650E-1,-1.695992589E0,8.120533943E0,5.241206646E0,9.812732009E0
3.121153650E-1,-1.686415792E0,8.125322342E0,5.224447250E0,9.806105774E0
3.141153650E-1,-1.686415792E0,8.132504463E0,5.202899456E0,9.800601503E0
3.161153650E-1,-1.693598390E0,8.134899139E0,5.174169064E0,9.788609963E0
3.181153650E-1,-1.698386788E0,8.132504463E0,5.138256073E0,9.768511760E0
3.201153650E-1,-1.700780988E0,8.137292862E0,5.107131481E0,9.756586650E0
3.221153650E-1,-1.705569386E0,8.147169113E0,5.064035892E0,9.743192034E0
3.241153650E-1,-1.722328901E0,8.159140587E0,5.011363506E0,9.728913411E0
3.261153650E-1,-1.741482496E0,8.171111107E0,4.961085320E0,9.716593310E0
3.281153650E-1,-1.758241892E0,8.178294182E0,4.922778130E0,9.706165813E0
3.301153650E-1,-1.770212889E0,8.175899506E0,4.898836136E0,9.694203520E0
3.321153650E-1,-1.779789686E0,8.175899506E0,4.879682541E0,9.686293706E0
3.341153650E-1,-1.786972284E0,8.185476303E0,4.867711544E0,9.689680486E0
3.361153650E-1,-1.794154882E0,8.197447777E0,4.867711544E0,9.701121454E0
3.381153650E-1,-1.803731680E0,8.211812973E0,4.867711544E0,9.715036590E0
3.401153650E-1,-1.822885275E0,8.223783493E0,4.870105743E0,9.729925777E0
3.421153650E-1,-1.832462072E0,8.230966568E0,4.870105743E0,9.737795328E0
3.441153650E-1,-1.842038989E0,8.240543365E0,4.870105743E0,9.747696782E0
3.461153650E-1,-1.854009986E0,8.250120163E0,4.872499943E0,9.759256704E0
3.481153650E-1,-1.870769382E0,8.250120163E0,4.870105743E0,9.761259690E0
3.501153650E-1,-1.877951980E0,8.247725487E0,4.858134747E0,9.754647741E0
3.521153650E-1,-1.873163581E0,8.247725487E0,4.843769550E0,9.746579962E0
3.541153650E-1,-1.861192584E0,8.245331764E0,4.841374874E0,9.741069983E0
3.561153650E-1,-1.854009986E0,8.242937088E0,4.848557949E0,9.741246278E0
3.581153650E-1,-1.844433188E0,8.233360291E0,4.843769550E0,9.728939249E0
3.601153650E-1,-1.825279474E0,8.216601372E0,4.824615479E0,9.701602846E0
3.621153650E-1,-1.813308477E0,8.199841499E0,4.812644482E0,9.679206329E0
3.641153650E-1,-1.808520079E0,8.185476303E0,4.800673485E0,9.660188046E0
3.661153650E-1,-1.798943281E0,8.166322708E0,4.791096687E0,9.637407897E0
3.681153650E-1,-1.779789686E0,8.149562836E0,4.788702488E0,9.618456075E0
3.701153650E-1,-1.760636091E0,8.134899139E0,4.793490887E0,9.604893458E0
3.721153650E-1,-1.746270895E0,8.122927666E0,4.810250282E0,9.600516844E0
3.741153650E-1,-1.734299898E0,8.113350868E0,4.822221279E0,9.596253254E0
3.761153650E-1,-1.717540503E0,8.108562469E0,4.831798077E0,9.594008722E0
3.781153650E-1,-1.700780988E0,8.106168747E0,4.841374874E0,9.593828141E0
3.801153650E-1,-1.688809991E0,8.106168747E0,4.848557949E0,9.595340803E0
3.821153650E-1,-1.681627393E0,8.108562469E0,4.853346348E0,9.598522114E0
3.841153650E-1,-1.686415792E0,8.108562469E0,4.855740547E0,9.600572889E0
3.861153650E-1,-1.698386788E0,8.106168747E0,4.855740547E0,9.600661732E0
3.881153650E-1,-1.707963586E0,8.106168747E0,4.855740547E0,9.602360524E0
3.901153650E-1,-1.710357785E0,8.113350868E0,4.860528946E0,9.611270868E0
3.921153650E-1,-1.719934702E0,8.127716064E0,4.870105743E0,9.629946716E0
3.941153650E-1,-1.734299898E0,8.147169113E0,4.867711544E0,9.647734261E0
3.961153650E-1,-1.753453493E0,8.161534309E0,4.858134747E0,9.658504783E0
3.981153650E-1,-1.770212889E0,8.178294182E0,4.853346348E0,9.673320018E0
4.001153650E-1,-1.779789686E0,8.192659378E0,4.853346348E0,9.687223017E0
4.021153650E-1,-1.779789686E0,8.204629898E0,4.858134747E0,9.699746198E0
4.041153650E-1,-1.775001287E0,8.218995094E0,4.865317345E0,9.714619025E0
4.061153650E-1,-1.775001287E0,8.226178169E0,4.870105743E0,9.723094507E0
4.081153650E-1,-1.779789686E0,8.226178169E0,4.874894142E0,9.726368875E0
4.101153650E-1,-1.779789686E0,8.228571892E0,4.882076740E0,9.731994657E0
4.121153650E-1,-1.782183886E0,8.230966568E0,4.879682541E0,9.733256996E0
4.141153650E-1,-1.791760683E0,8.238148689E0,4.877288342E0,9.739889206E0
4.161153650E-1,-1.796549082E0,8.242937088E0,4.874894142E0,9.743623214E0
4.181153650E-1,-1.798943281E0,8.240543365E0,4.872499943E0,9.740842242E0
4.201153650E-1,-1.808520079E0,8.228571892E0,4.872499943E0,9.732491764E0
4.221153650E-1,-1.825279474E0,8.216601372E0,4.870105743E0,9.724305282E0
4.241153650E-1,-1.854009986E0,8.214206696E0,4.867711544E0,9.726518408E0
4.261153650E-1,-1.887528777E0,8.216601372E0,4.867711544E0,9.734984266E0
4.281153650E-1,-1.925835967E0,8.218995094E0,4.862923145E0,9.742111991E0
4.301153650E-1,-1.959354758E0,8.221389771E0,4.850952148E0,9.744847745E0
4.321153650E-1,-1.988384485E0,8.223783493E0,4.846163750E0,9.750363629E0
4.341153650E-1,-2.012326479E0,8.223783493E0,4.850952148E0,9.757653896E0
4.361153650E-1,-2.036268473E0,8.228571892E0,4.858134747E0,9.770223021E0
4.381153650E-1,-2.067393064E0,8.247725487E0,4.872499943E0,9.800017627E0
4.401153650E-1,-2.088941097E0,8.269273758E0,4.891653538E0,9.832234625E0
4.421153650E-1,-2.096123695E0,8.274062157E0,4.922778130E0,9.853303184E0
4.441153650E-1,-2.093729496E0,8.269273758E0,4.975450516E0,9.875206303E0
4.461153650E-1,-2.081758261E0,8.271667480E0,5.030517101E0,9.902540213E0
4.481153650E-1,-2.076969862E0,8.276455879E0,5.073612690E0,9.927490693E0
4.501153650E-1,-2.084152699E0,8.278850555E0,5.109525681E0,9.949387502E0
4.521153650E-1,-2.088941097E0,8.276455879E0,5.135861874E0,9.961951316E0
4.541153650E-1,-2.081758261E0,8.264485359E0,5.150227070E0,9.957925215E0
4.561153650E-1,-2.060210466E0,8.240543365E0,5.147832870E0,9.932331317E0
4.581153650E-1,-2.024297476E0,8.216601372E0,5.135861874E0,9.898858296E0
4.601153650E-1,-1.978807688E0,8.199841499E0,5.121496677E0,9.868272832E0
4.621153650E-1,-1.937806964E0,8.180687904E0,5.114314079E0,9.840475543E0
4.641153650E-1,-1.904288173E0,8.154352188E0,5.095160484E0,9.802062712E0
4.661153650E-1,-1.863586783E0,8.130110741E0,5.056853294E0,9.754148943E0
4.681153650E-1,-1.818096876E0,8.113350868E0,5.008969307E0,9.706786908E0
4.701153650E-1,-1.779789686E0,8.098985672E0,4.951508522E0,9.658087641E0
4.721153650E-1,-1.751059294E0,8.082226753E0,4.898836136E0,9.611825707E0
4.741153650E-1,-1.731905699E0,8.067861557E0,4.858134747E0,9.575560593E0
4.761153650E-1,-1.727117300E0,8.067861557E0,4.829403877E0,9.560149898E0
4.781153650E-1,-1.719934702E0,8.077438354E0,4.812644482E0,9.558490082E0
4.801153650E-1,-1.717540503E0,8.087015152E0,4.795885086E0,9.557733686E0
4.821153650E-1,-1.719934702E0,8.098985672E0,4.781519890E0,9.561102277E0
4.841153650E-1,-1.719934702E0,8.110957146E0,4.774337292E0,9.567658949E0
4.861153650E-1,-1.705569386E0,8.118139267E0,4.779125690E0,9.573567488E0
4.881153650E-1,-1.681627393E0,8.120533943E0,4.788702488E0,9.576148168E0
4.901153650E-1,-1.657685399E0,8.130110741E0,4.805461884E0,9.588487131E0
4.921153650E-1,-1.636137605E0,8.149562836E0,4.827009678E0,9.612093586E0
4.941153650E-1,-1.619378209E0,8.163928986E0,4.855740547E0,9.635888051E0
4.961153650E-1,-1.616984010E0,8.175899506E0,4.889259338E0,9.662547640E0
4.981153650E-1,-1.626560807E0,8.180687904E0,4.920383930E0,9.683983306E0
5.001153650E-1,-1.640926003E0,8.180687904E0,4.951508522E0,9.702253830E0
5.021153650E-1,-1.657685399E0,8.185476303E0,4.980238914E0,9.723822440E0
5.041153650E-1,-1.676838994E0,8.185476303E0,5.004180908E0,9.739385909E0
5.061153650E-1,-1.693598390E0,8.175899506E0,5.028122902E0,9.746570071E0
5.081153650E-1,-1.712751985E0,8.173505783E0,5.049670696E0,9.759041464E0
5.101153650E-1,-1.729511499E0,8.168717384E0,5.049670696E0,9.757987901E0
5.121153650E-1,-1.748665094E0,8.161534309E0,5.044882298E0,9.752912862E0
5.141153650E-1,-1.760636091E0,8.156745911E0,5.040093899E0,9.748583990E0
5.161153650E-1,-1.765424490E0,8.151957512E0,5.030517101E0,9.740494711E0
5.181153650E-1,-1.770212889E0,8.144774437E0,5.011363506E0,9.725470091E0
5.201153650E-1,-1.779789686E0,8.137292862E0,4.992209911E0,9.711093978E0
5.221153650E-1,-1.786972284E0,8.137292862E0,4.970662117E0,9.701354903E0
5.241153650E-1,-1.786972284E0,8.144774437E0,4.951508522E0,9.697837760E0
5.261153650E-1,-1.779789686E0,8.156745911E0,4.939537525E0,9.700473501E0
5.281153650E-1,-1.775001287E0,8.163928986E0,4.941931725E0,9.706856094E0
5.301153650E-1,-1.770212889E0,8.171111107E0,4.958691120E0,9.720562125E0
5.321153650E-1,-1.765424490E0,8.175899506E0,4.982633114E0,9.735948290E0
5.341153650E-1,-1.760636091E0,8.183082581E0,4.999392509E0,9.749697710E0
5.361153650E-1,-1.763030291E0,8.187870979E0,4.999392509E0,9.754149499E0
5.381153650E-1,-1.777395487E0,8.199841499E0,4.994604111E0,9.764353822E0
5.401153650E-1,-1.791760683E0,8.211812973E0,4.996998310E0,9.778254996E0
5.421153650E-1,-1.801337481E0,8.221389771E0,5.001786709E0,9.790502375E0
5.441153650E-1,-1.808520079E0,8.218995094E0,5.004180908E0,9.791039362E0
5.461153650E-1,-1.808520079E0,8.216601372E0,4.999392509E0,9.786583083E0
5.481153650E-1,-1.801337481E0,8.218995094E0,4.987421513E0,9.781158951E0
5.501153650E-1,-1.791760683E0,8.214206696E0,4.968267918E0,9.765617445E0
5.521153650E-1,-1.782183886E0,8.207024574E0,4.949114323E0,9.748085163E0
5.541153650E-1,-1.772607088E0,8.199841499E0,4.929960728E0,9.730572916E0
5.561153650E-1,-1.765424490E0,8.192659378E0,4.920383930E0,9.718362482E0
5.581153650E-1,-1.770212889E0,8.197447777E0,4.908412933E0,9.717217773E0
5.601153650E-1,-1.779789686E0,8.204629898E0,4.898836136E0,9.720195398E0
5.621153650E-1,-1.789366484E0,8.209418297E0,4.891653538E0,9.722379108E0
5.641153650E-1,-1.786972284E0,8.216601372E0,4.889259338E0,9.726801372E0
5.661153650E-1,-1.775001287E0,8.221389771E0,4.896441936E0,9.732267103E0
5.681153650E-1,-1.767818689E0,8.221389771E0,4.908412933E0,9.736988765E0
5.701153650E-1,-1.765424490E0,8.226178169E0,4.917989731E0,9.745427333E0
5.721153650E-1,-1.763030291E0,8.230966568E0,4.927566528E0,9.753870941E0
5.741153650E-1,-1.753453493E0,8.238148689E0,4.939537525E0,9.764257470E0
5.761153650E-1,-1.746270895E0,8.242937088E0,4.951508522E0,9.773070680E0
5.781153650E-1,-1.741482496E0,8.242937088E0,4.958691120E0,9.775857545E0
5.801153650E-1,-1.731905699E0,8.230966568E0,4.961085320E0,9.765279082E0
5.821153650E-1,-1.724723101E0,8.214206696E0,4.963479519E0,9.751102007E0
5.841153650E-1,-1.727117300E0,8.209418297E0,4.958691120E0,9.745055185E0
5.861153650E-1,-1.736694098E0,8.211812973E0,4.956296921E0,9.747556507E0
5.881153650E-1,-1.741482496E0,8.209418297E0,4.956296921E0,9.746393652E0
5.901153650E-1,-1.736694098E0,8.199841499E0,4.949114323E0,9.733819373E0
5.921153650E-1,-1.729511499E0,8.192659378E0,4.939537525E0,9.721620681E0
5.941153650E-1,-1.729511499E0,8.190264702E0,4.917989731E0,9.708669780E0
5.961153650E-1,-1.736694098E0,8.185476303E0,4.891653538E0,9.692595268E0
5.981153650E-1,-1.739088297E0,8.178294182E0,4.862923145E0,9.672483928E0
6.001153650E-1,-1.731905699E0,8.168717384E0,4.846163750E0,9.654674730E0
6.021153650E-1,-1.724723101E0,8.161534309E0,4.834192276E0,9.641303181E0
6.041153650E-1,-1.724723101E0,8.156745911E0,4.824615479E0,9.632449748E0
6.061153650E-1,-1.729511499E0,8.159140587E0,4.822221279E0,9.634137388E0
6.081153650E-1,-1.734299898E0,8.163928986E0,4.824615479E0,9.640251404E0
6.101153650E-1,-1.734299898E0,8.168717384E0,4.829403877E0,9.646703149E0
6.121153650E-1,-1.734299898E0,8.173505783E0,4.838980675E0,9.655554199E0
6.141153650E-1,-1.731905699E0,8.175899506E0,4.848557949E0,9.661953439E0
6.161153650E-1,-1.724723101E0,8.175899506E0,4.862923145E0,9.667886223E0
6.181153650E-1,-1.724723101E0,8.180687904E0,4.874894142E0,9.677960387E0
6.201153650E-1,-1.729511499E0,8.187870979E0,4.879682541E0,9.687298019E0
6.221153650E-1,-1.729511499E0,8.187870979E0,4.882076740E0,9.688504245E0
6.241153650E-1,-1.729511499E0,8.185476303E0,4.884470940E0,9.687687479E0
6.261153650E-1,-1.734299898E0,8.187870979E0,4.882076740E0,9.689360175E0
6.281153650E-1,-1.741482496E0,8.192659378E0,4.877288342E0,9.692284072E0
6.301153650E-1,-1.746270895E0,8.195053101E0,4.886865139E0,9.699990116E0
6.321153650E-1,-1.755847692E0,8.195053101E0,4.903624535E0,9.710171472E0
6.341153650E-1,-1.772607088E0,8.190264702E0,4.910807133E0,9.712805901E0
6.361153650E-1,-1.796549082E0,8.187870979E0,4.913201332E0,9.716396817E0
6.381153650E-1,-1.825279474E0,8.190264702E0,4.927566528E0,9.731032470E0
6.401153650E-1,-1.849221587E0,8.195053101E0,4.946720123E0,9.749284885E0
6.421153650E-1,-1.865980983E0,8.192659378E0,4.961085320E0,9.757762052E0
6.441153650E-1,-1.880346179E0,8.199841499E0,4.968267918E0,9.770198998E0
6.461153650E-1,-1.889922976E0,8.209418297E0,4.970662117E0,9.781300502E0
6.481153650E-1,-1.892317176E0,8.211812973E0,4.968267918E0,9.782557063E0
6.501153650E-1,-1.889922976E0,8.207024574E0,4.970662117E0,9.779291544E0
6.521153650E-1,-1.873163581E0,8.197447777E0,4.973056316E0,9.769246695E0
6.541153650E-1,-1.849221587E0,8.187870979E0,4.965873718E0,9.752986898E0
6.561153650E-1,-1.830067873E0,8.185476303E0,4.953902721E0,9.741269060E0
6.581153650E-1,-1.820491076E0,8.192659378E0,4.946720123E0,9.741863036E0
6.601153650E-1,-1.820491076E0,8.195053101E0,4.939537525E0,9.740231724E0
6.621153650E-1,-1.827673674E0,8.192659378E0,4.934749126E0,9.737135497E0
6.641153650E-1,-1.839644790E0,8.195053101E0,4.937143326E0,9.742616306E0
6.661153650E-1,-1.856404185E0,8.204629898E0,4.941931725E0,9.756273747E0
6.681153650E-1,-1.875557780E0,8.209418297E0,4.949114323E0,9.767599415E0
6.701153650E-1,-1.894711375E0,8.211812973E0,4.961085320E0,9.779374778E0
6.721153650E-1,-1.921047568E0,8.211812973E0,4.973056316E0,9.790586560E0
6.741153650E-1,-1.947383761E0,8.216601372E0,4.987421513E0,9.807100232E0
6.761153650E-1,-1.974019289E0,8.228571892E0,4.994604111E0,9.826098806E0
6.781153650E-1,-1.993172884E0,8.240543365E0,4.992209911E0,9.838772937E0
6.801153650E-1,-2.000355482E0,8.250120163E0,4.985027313E0,9.844612845E0
6.821153650E-1,-1.993172884E0,8.254908562E0,4.989815712E0,9.849594629E0
6.841153650E-1,-1.985990286E0,8.254908562E0,5.006575108E0,9.856645833E0
6.861153650E-1,-1.978807688E0,8.250120163E0,5.025728703E0,9.860938675E0
6.881153650E-1,-1.969230890E0,8.245331764E0,5.037699699E0,9.861124909E0
6.901153650E-1,-1.952172160E0,8.252513885E0,5.049670696E0,9.869859964E0
6.921153650E-1,-1.930624366E0,8.259696960E0,5.064035892E0,9.878985972E0
6.941153650E-1,-1.913864970E0,8.257302284E0,5.080795288E0,9.882327706E0
6.961153650E-1,-1.901893973E0,8.250120163E0,5.085583687E0,9.876479374E0
6.981153650E-1,-1.894711375E0,8.242937088E0,5.078401089E0,9.865399163E0
7.001153650E-1,-1.889922976E0,8.245331764E0,5.071218491E0,9.862786713E0
7.021153650E-1,-1.882740378E0,8.245331764E0,5.071218491E0,9.861412891E0
7.041153650E-1,-1.873163581E0,8.240543365E0,5.076006889E0,9.858049640E0
7.061153650E-1,-1.861192584E0,8.233360291E0,5.073612690E0,9.848543305E0
7.081153650E-1,-1.849221587E0,8.228571892E0,5.066430092E0,9.838583726E0
7.101153650E-1,-1.837250471E0,8.226178169E0,5.054459095E0,9.828176500E0
7.121153650E-1,-1.822885275E0,8.226178169E0,5.042488098E0,9.819348462E0
7.141153650E-1,-1.801337481E0,8.223783493E0,5.030517101E0,9.807218462E0
7.161153650E-1,-1.779789686E0,8.218995094E0,5.013757706E0,9.790674033E0
7.181153650E-1,-1.755847692E0,8.214206696E0,4.992209911E0,9.771302500E0
7.201153650E-1,-1.751059294E0,8.211812973E0,4.970662117E0,9.757436284E0
7.221153650E-1,-1.751059294E0,8.216601372E0,4.953902721E0,9.752943090E0
7.241153650E-1,-1.746270895E0,8.216601372E0,4.939537525E0,9.744795078E0
7.261153650E-1,-1.746270895E0,8.223783493E0,4.932354927E0,9.747215095E0
7.281153650E-1,-1.758241892E0,8.230966568E0,4.927566528E0,9.753006566E0
7.301153650E-1,-1.765424490E0,8.235754967E0,4.920383930E0,9.754719961E0
7.321153650E-1,-1.770212889E0,8.233360291E0,4.903624535E0,9.745122314E0
7.341153650E-1,-1.777395487E0,8.240543365E0,4.882076740E0,9.741681732E0
7.361153650E-1,-1.784578085E0,8.245331764E0,4.874894142E0,9.743449479E0
7.381153650E-1,-1.789366484E0,8.250120163E0,4.870105743E0,9.745986100E0
7.401153650E-1,-1.794154882E0,8.259696960E0,4.860528946E0,9.750196267E0
7.421153650E-1,-1.803731680E0,8.269273758E0,4.853346348E0,9.756500768E0
7.441153650E-1,-1.818096876E0,8.269273758E0,4.853346348E0,9.759166742E0
7.461153650E-1,-1.830067873E0,8.274062157E0,4.855740547E0,9.766650872E0
7.481153650E-1,-1.834856272E0,8.283638954E0,4.855740547E0,9.775663053E0
7.501153650E-1,-1.846827388E0,8.293215752E0,4.858134747E0,9.787219836E0
7.521153650E-1,-1.856404185E0,8.293215752E0,4.865317345E0,9.792598065E0
7.541153650E-1,-1.863586783E0,8.293215752E0,4.867711544E0,9.795151805E0
7.561153650E-1,-1.868375182E0,8.295609474E0,4.867711544E0,9.798090531E0
7.581153650E-1,-1.877951980E0,8.298004150E0,4.865317345E0,9.800759633E0
7.601153650E-1,-1.887528777E0,8.298004150E0,4.867711544E0,9.803787709E0
7.621153650E-1,-1.889922976E0,8.298004150E0,4.860528946E0,9.800684842E0
7.641153650E-1,-1.889922976E0,8.286032677E0,4.846163750E0,9.783427286E0
7.661153650E-1,-1.897105575E0,8.281244278E0,4.831798077E0,9.773652797E0
7.681153650E-1,-1.904288173E0,8.281244278E0,4.824615479E0,9.771501151E0
7.701153650E-1,-1.906682372E0,8.286032677E0,4.817432880E0,9.772483550E0
7.721153650E-1,-1.901893973E0,8.278850555E0,4.805461884E0,9.759561011E0
7.741153650E-1,-1.887528777E0,8.264485359E0,4.803067684E0,9.743405068E0
7.761153650E-1,-1.875557780E0,8.245331764E0,4.815038681E0,9.730766177E0
7.781153650E-1,-1.854009986E0,8.233360291E0,4.824615479E0,9.721239078E0
7.801153650E-1,-1.830067873E0,8.218995094E0,4.822221279E0,9.703342045E0
7.821153650E-1,-1.810914278E0,8.216601372E0,4.807856083E0,9.690584541E0
7.841153650E-1,-1.791760683E0,8.218995094E0,4.800673485E0,9.685491862E0
7.861153650E-1,-1.772607088E0,8.216601372E0,4.791096687E0,9.675188962E0
7.881153650E-1,-1.751059294E0,8.209418297E0,4.783914089E0,9.661603978E0
7.901153650E-1,-1.731905699E0,8.204629898E0,4.769249916E0,9.646822994E0
7.921153650E-1,-1.724723101E0,8.209418297E0,4.766855717E0,9.648426399E0
7.941153650E-1,-1.719934702E0,8.211812973E0,4.776731491E0,9.654491774E0
7.961153650E-1,-1.710357785E0,8.211812973E0,4.783914089E0,9.656346621E0
7.981153650E-1,-1.710357785E0,8.218995094E0,4.795885086E0,9.668387553E0
8.001153650E-1,-1.715146184E0,8.223783493E0,4.815038681E0,9.682816681E0
8.021153650E-1,-1.722328901E0,8.228571892E0,4.846163750E0,9.703665045E0
8.041153650E-1,-1.736694098E0,8.240543365E0,4.891653538E0,9.739144505E0
8.061153650E-1,-1.753453493E0,8.247725487E0,4.939537525E0,9.772338810E0
8.081153650E-1,-1.777395487E0,8.250120163E0,4.980238914E0,9.799305948E0
8.101153650E-1,-1.803731680E0,8.252513885E0,5.018546104E0,9.825641883E0
8.121153650E-1,-1.815702677E0,8.262090683E0,5.059247494E0,9.856718717E0
8.141153650E-1,-1.830067873E0,8.257302284E0,5.092766285E0,9.872611502E0
8.161153650E-1,-1.849221587E0,8.245331764E0,5.111919880E0,9.876074182E0
8.181153650E-1,-1.856404185E0,8.242937088E0,5.114314079E0,9.876662232E0
8.201153650E-1,-1.856404185E0,8.245331764E0,5.099948883E0,9.871231484E0
8.221153650E-1,-1.858798385E0,8.247725487E0,5.080795288E0,9.863801899E0
8.241153650E-1,-1.861192584E0,8.238148689E0,5.056853294E0,9.843926905E0
8.261153650E-1,-1.868375182E0,8.228571892E0,5.023334503E0,9.820087104E0
8.281153650E-1,-1.865980983E0,8.228571892E0,4.980238914E0,9.797655845E0
8.301153650E-1,-1.861192584E0,8.228571892E0,4.937143326E0,9.774907541E0
8.321153650E-1,-1.865980983E0,8.226178169E0,4.906018734E0,9.758120317E0
8.341153650E-1,-1.875557780E0,8.228571892E0,4.886865139E0,9.752361932E0
8.361153650E-1,-1.882740378E0,8.233360291E0,4.870105743E0,9.749403210E0
8.381153650E-1,-1.887528777E0,8.238148689E0,4.846163750E0,9.742441265E0
8.401153650E-1,-1.880346179E0,8.242937088E0,4.819827080E0,9.732031991E0
8.421153650E-1,-1.868375182E0,8.247725487E0,4.795885086E0,9.721950179E0
8.441153650E-1,-1.851615787E0,8.252513885E0,4.781519890E0,9.715729458E0
8.461153650E-1,-1.844433188E0,8.259696960E0,4.771644115E0,9.715611933E0
8.481153650E-1,-1.832462072E0,8.254908562E0,4.757278919E0,9.702223216E0
8.501153650E-1,-1.815702677E0,8.252513885E0,4.742913723E0,9.689994439E0
8.521153650E-1,-1.801337481E0,8.259696960E0,4.745307922E0,9.694604576E0
8.541153650E-1,-1.796549082E0,8.264485359E0,4.754884720E0,9.702486050E0
8.561153650E-1,-1.798943281E0,8.264485359E0,4.762067318E0,9.706451479E0
8.581153650E-1,-1.796549082E0,8.264485359E0,4.766855717E0,9.708358269E0
8.601153650E-1,-1.803731680E0,8.259696960E0,4.764461517E0,9.704438953E0
8.621153650E-1,-1.813308477E0,8.252513885E0,4.752490520E0,9.694237423E0
8.641153650E-1,-1.815702677E0,8.245331764E0,4.750096321E0,9.687398370E0
8.661153650E-1,-1.815702677E0,8.242937088E0,4.752490520E0,9.686534685E0
8.681153650E-1,-1.815702677E0,8.247725487E0,4.754884720E0,9.691784181E0
8.701153650E-1,-1.815702677E0,8.247725487E0,4.752490520E0,9.690609788E0
8.721153650E-1,-1.818096876E0,8.252513885E0,4.752490520E0,9.695134235E0
8.741153650E-1,-1.820491076E0,8.264485359E0,4.752490520E0,9.705775196E0
8.761153650E-1,-1.822885275E0,8.274062157E0,4.757278919E0,9.716723625E0
8.781153650E-1,-1.820491076E0,8.278850555E0,4.766855717E0,9.725043326E0
8.801153650E-1,-1.813308477E0,8.281244278E0,4.781519890E0,9.732935163E0
8.821153650E-1,-1.803731680E0,8.293215752E0,4.793490887E0,9.747226803E0
8.841153650E-1,-1.794154882E0,8.307580948E0,4.810250282E0,9.765930612E0
8.861153650E-1,-1.786972284E0,8.314763069E0,4.836586475E0,9.783717268E0
8.881153650E-1,-1.782183886E0,8.319551468E0,4.855740547E0,9.796393841E0
8.901153650E-1,-1.786972284E0,8.324339867E0,4.862923145E0,9.804892946E0
8.921153650E-1,-1.789366484E0,8.326734543E0,4.874894142E0,9.813303901E0
8.941153650E-1,-1.789366484E0,8.321946144E0,4.891653538E0,9.817580882E0
8.961153650E-1,-1.794154882E0,8.321946144E0,4.906018734E0,9.825619532E0
8.981153650E-1,-1.798943281E0,8.321946144E0,4.910807133E0,9.828886572E0
9.001153650E-1,-1.803731680E0,8.312369347E0,4.913201332E0,9.822854955E0
9.021153650E-1,-1.801337481E0,8.295609474E0,4.915595531E0,9.809435901E0
9.041153650E-1,-1.803731680E0,8.271667480E0,4.908412933E0,9.786033334E0
9.061153650E-1,-1.801337481E0,8.254908562E0,4.891653538E0,9.763022402E0
9.081153650E-1,-1.794154882E0,8.252513885E0,4.879682541E0,9.753680273E0
9.101153650E-1,-1.794154882E0,8.247725487E0,4.862923145E0,9.741251920E0
9.121153650E-1,-1.798943281E0,8.247725487E0,4.836586475E0,9.729015437E0
9.141153650E-1,-1.806125879E0,8.250120163E0,4.817432880E0,9.722871641E0
9.161153650E-1,-1.820491076E0,8.250120163E0,4.812644482E0,9.723179386E0
9.181153650E-1,-1.837250471E0,8.257302284E0,4.815038681E0,9.733608160E0
9.201153650E-1,-1.846827388E0,8.269273758E0,4.827009678E0,9.751496414E0
9.221153650E-1,-1.851615787E0,8.278850555E0,4.841374874E0,9.767638313E0
9.241153650E-1,-1.858798385E0,8.290821075E0,4.846163750E0,9.781520773E0
9.261153650E-1,-1.856404185E0,8.298004150E0,4.860528946E0,9.794276442E0
9.281153650E-1,-1.854009986E0,8.300397873E0,4.882076740E0,9.806560619E0
9.301153650E-1,-1.854009986E0,8.305186272E0,4.898836136E0,9.818964687E0
9.321153650E-1,-1.858798385E0,8.309974670E0,4.910807133E0,9.829895073E0
9.341153650E-1,-1.868375182E0,8.314763069E0,4.915595531E0,9.838149732E0
9.361153650E-1,-1.875557780E0,8.314763069E0,4.922778130E0,9.843106542E0
9.381153650E-1,-1.882740378E0,8.314763069E0,4.922778130E0,9.844477677E0
9.401153650E-1,-1.894711375E0,8.314763069E0,4.927566528E0,9.849168898E0
9.421153650E-1,-1.904288173E0,8.317157745E0,4.927566528E0,9.853037009E0
9.441153650E-1,-1.911470771E0,8.312369347E0,4.925172329E0,9.849189161E0
9.461153650E-1,-1.913864970E0,8.300397873E0,4.922778130E0,9.838354968E0
9.481153650E-1,-1.909076571E0,8.295609474E0,4.917989731E0,9.830988399E0
9.501153650E-1,-1.906682372E0,8.295609474E0,4.898836136E0,9.820955641E0
9.521153650E-1,-1.901893973E0,8.298004150E0,4.877288342E0,9.811320764E0
9.541153650E-1,-1.897105575E0,8.302792549E0,4.870105743E0,9.810876802E0
9.561153650E-1,-1.880346179E0,8.300397873E0,4.867711544E0,9.804433807E0
9.581153650E-1,-1.863586783E0,8.298004150E0,4.860528946E0,9.795640368E0
9.601153650E-1,-1.854009986E0,8.300397873E0,4.848557949E0,9.789916857E0
9.621153650E-1,-1.844433188E0,8.300397873E0,4.841374874E0,9.784551564E0
9.641153650E-1,-1.827673674E0,8.293215752E0,4.838980675E0,9.774126689E0
9.661153650E-1,-1.825279474E0,8.286032677E0,4.831798077E0,9.764028643E0
9.681153650E-1,-1.827673674E0,8.286032677E0,4.822221279E0,9.759741116E0
9.701153650E-1,-1.822885275E0,8.283638954E0,4.812644482E0,9.752083467E0
9.721153650E-1,-1.810914278E0,8.274062157E0,4.803067684E0,9.736990001E0
9.741153650E-1,-1.796549082E0,8.269273758E0,4.791096687E0,9.724355226E0
9.761153650E-1,-1.786972284E0,8.264485359E0,4.776731491E0,9.711444379E0
9.781153650E-1,-1.777395487E0,8.252513885E0,4.762067318E0,9.692285865E0
9.801153650E-1,-1.758241892E0,8.245331764E0,4.752490520E0,9.677968619E0
9.821153650E-1,-1.739088297E0,8.242937088E0,4.745307922E0,9.668939302E0
9.841153650E-1,-1.722328901E0,8.240543365E0,4.745307922E0,9.663897717E0
9.861153650E-1,-1.717540503E0,8.233360291E0,4.745307922E0,9.656920541E0
9.881153650E-1,-1.715146184E0,8.226178169E0,4.740519524E0,9.648018401E0
9.901153650E-1,-1.717540503E0,8.223783493E0,4.735731125E0,9.644050477E0
9.921153650E-1,-1.724723101E0,8.230966568E0,4.726154327E0,9.646761899E0
9.941153650E-1,-1.734299898E0,8.240543365E0,4.718971729E0,9.653136551E0
9.961153650E-1,-1.746270895E0,8.240543365E0,4.709394932E0,9.650617474E0
9.981153650E-1,-1.758241892E0,8.240543365E0,4.702212334E0,9.649288592E0
1.000115365E0,-1.767818689E0,8.238148689E0,4.699818134E0,9.647827074E0
1.002115365E0,-1.775001287E0,8.238148689E0,4.707000732E0,9.652646233E0
1.004115365E0,-1.772607088E0,8.240543365E0,4.728548527E0,9.664774287E0
1.006115365E0,-1.765424490E0,8.240543365E0,4.745307922E0,9.671671307E0
1.008115365E0,-1.765424490E0,8.238148689E0,4.757278919E0,9.675511365E0
1.010115365E0,-1.775001287E0,8.238148689E0,4.776731491E0,9.686840926E0
1.012115365E0,-1.794154882E0,8.240543365E0,4.812644482E0,9.710154150E0
1.014115365E0,-1.813308477E0,8.240543365E0,4.860528946E0,9.737524543E0
1.016115365E0,-1.818096876E0,8.240543365E0,4.908412933E0,9.762404864E0
1.018115365E0,-1.818096876E0,8.240543365E0,4.941931725E0,9.779300608E0
1.020115365E0,-1.832462072E0,8.242937088E0,4.951508522E0,9.788838834E0
1.022115365E0,-1.849221587E0,8.254908562E0,4.944325924E0,9.798443483E0
1.024115365E0,-1.856404185E0,8.264485359E0,4.932354927E0,9.801840637E0
1.026115365E0,-1.851615787E0,8.264485359E0,4.910807133E0,9.790108578E0
1.028115365E0,-1.842038989E0,8.262090683E0,4.901230335E0,9.781477848E0
1.030115365E0,-1.837250471E0,8.259696960E0,4.913201332E0,9.784560823E0
1.032115365E0,-1.834856272E0,8.257302284E0,4.929960728E0,9.790518440E0
1.034115365E0,-1.834856272E0,8.264485359E0,4.941931725E0,9.802607049E0
1.036115365E0,-1.844433188E0,8.269273758E0,4.949114323E0,9.812061702E0
1.038115365E0,-1.856404185E0,8.271667480E0,4.956296921E0,9.819959194E0
1.040115365E0,-1.856404185E0,8.269273758E0,4.968267918E0,9.823991606E0
1.042115365E0,-1.856404185E0,8.264485359E0,4.980238914E0,9.826023326E0
1.044115365E0,-1.854009986E0,8.259696960E0,4.989815712E0,9.826403602E0
1.046115365E0,-1.854009986E0,8.257302284E0,4.992209911E0,9.825607047E0
1.048115365E0,-1.854009986E0,8.252513885E0,4.992209911E0,9.821583287E0
1.050115365E0,-1.844433188E0,8.247725487E0,4.999392509E0,9.819411131E0
1.052115365E0,-1.834856272E0,8.252513885E0,5.011363506E0,9.827738660E0
1.054115365E0,-1.832462072E0,8.257302284E0,5.028122902E0,9.839866776E0
1.056115365E0,-1.822885275E0,8.262090683E0,5.037699699E0,9.847003171E0
1.058115365E0,-1.810914278E0,8.271667480E0,5.032911301E0,9.850385251E0
1.060115365E0,-1.798943281E0,8.286032677E0,5.018546104E0,9.852935575E0
1.062115365E0,-1.789366484E0,8.302792549E0,4.999392509E0,9.855562997E0
1.064115365E0,-1.770212889E0,8.317157745E0,4.980238914E0,9.854519079E0
1.066115365E0,-1.751059294E0,8.329128265E0,4.968267918E0,9.855164758E0
1.068115365E0,-1.734299898E0,8.333916664E0,4.958691120E0,9.851425314E0
1.070115365E0,-1.717540503E0,8.333916664E0,4.944325924E0,9.841263699E0
1.072115365E0,-1.705569386E0,8.341099739E0,4.941931725E0,9.844064250E0
1.074115365E0,-1.700780988E0,8.353070259E0,4.951508522E0,9.858188239E0
1.076115365E0,-1.698386788E0,8.362647057E0,4.963479519E0,9.871905207E0
1.078115365E0,-1.684021592E0,8.369830132E0,4.963479519E0,9.875531079E0
1.080115365E0,-1.667262197E0,8.372223854E0,4.956296921E0,9.871108077E0
1.082115365E0,-1.652897000E0,8.372223854E0,4.949114323E0,9.865086585E0
1.084115365E0,-1.645714402E0,8.367435455E0,4.941931725E0,9.856218401E0
1.086115365E0,-1.638531804E0,8.357858658E0,4.932354927E0,9.842088851E0
1.088115365E0,-1.628955007E0,8.345888138E0,4.934749126E0,9.831535595E0
1.090115365E0,-1.616984010E0,8.336311340E0,4.946720123E0,9.827449518E0
1.092115365E0,-1.616984010E0,8.331522942E0,4.956296921E0,9.828214028E0
1.094115365E0,-1.619378209E0,8.326734543E0,4.973056316E0,9.833014953E0
1.096115365E0,-1.619378209E0,8.324339867E0,4.994604111E0,9.841904807E0
1.098115365E0,-1.626560807E0,8.312369347E0,5.030517101E0,9.851258119E0
1.100115365E0,-1.636137605E0,8.300397873E0,5.078401089E0,9.867305039E0
1.102115365E0,-1.650502801E0,8.295609474E0,5.119102478E0,9.886683277E0
1.104115365E0,-1.660079598E0,8.302792549E0,5.150227070E0,9.910452424E0
1.106115365E0,-1.672050595E0,8.312369347E0,5.176563263E0,9.934185652E0
1.108115365E0,-1.695992589E0,8.326734543E0,5.217264652E0,9.971496852E0
1.110115365E0,-1.729511499E0,8.350676537E0,5.269937038E0,1.002483142E1
1.112115365E0,-1.770212889E0,8.379406929E0,5.315426826E0,1.007977562E1
1.114115365E0,-1.808520079E0,8.412925720E0,5.363610268E0,1.013984118E1
1.116115365E0,-1.827673674E0,8.444049835E0,5.399523258E0,1.018809207E1
1.118115365E0,-1.830067873E0,8.465598106E0,5.435436249E0,1.022543236E1
1.120115365E0,-1.834856272E0,8.482357025E0,5.476137638E0,1.026183033E1
1.122115365E0,-1.844433188E0,8.494328499E0,5.516839504E0,1.029519638E1
1.124115365E0,-1.858798385E0,8.496722221E0,5.538387299E0,1.031131193E1
1.126115365E0,-1.868375182E0,8.489540100E0,5.543175697E0,1.030969998E1
1.128115365E0,-1.868375182E0,8.448838234E0,5.543175697E0,1.027620991E1
1.130115365E0,-1.815702677E0,8.338705063E0,5.547964096E0,1.017893334E1
1.132115365E0,-1.707963586E0,8.151957512E0,5.550358295E0,1.000889745E1
1.134115365E0,-1.631349206E0,8.005612373E0,5.559935093E0,9.882510204E0
1.136115365E0,-1.679233193E0,7.988852501E0,5.571906090E0,9.883710127E0
1.138115365E0,-1.868375182E0,8.079832077E0,5.545569897E0,9.976364954E0
1.140115365E0,-2.115277290E0,8.207024574E0,5.468955040E0,1.008658117E1
1.142115365E0,-2.316390038E0,8.319551468E0,5.368398666E0,1.016859399E1
1.144115365E0,-2.436100245E0,8.403348923E0,5.293879032E0,1.022624138E1
1.146115365E0,-2.479195833E0,8.456021309E0,5.284302235E0,1.027494810E1
1.148115365E0,-2.474407434E0,8.489540100E0,5.339668274E0,1.032991000E1
1.150115365E0,-2.445677042E0,8.511087418E0,5.437830448E0,1.039182107E1
1.152115365E0,-2.433706045E0,8.508693695E0,5.535993099E0,1.043877450E1
1.154115365E0,-2.452859640E0,8.479963303E0,5.595848083E0,1.045178520E1
1.156115365E0,-2.469619036E0,8.434473038E0,5.603030682E0,1.042273028E1
1.158115365E0,-2.472013235E0,8.400954247E0,5.569511890E0,1.037816672E1
1.160115365E0,-2.469619036E0,8.379406929E0,5.521627903E0,1.033449822E1
1.162115365E0,-2.472013235E0,8.355464935E0,5.473743439E0,1.029011715E1
1.164115365E0,-2.483984232E0,8.326734543E0,5.421071053E0,1.024171359E1
1.166115365E0,-2.431311846E0,8.307580948E0,5.385158062E0,1.019446447E1
1.168115365E0,-2.306813240E0,8.295609474E0,5.385158062E0,1.015571028E1
1.170115365E0,-2.194285870E0,8.288427353E0,5.392340660E0,1.012868482E1
1.172115365E0,-2.115277290E0,8.286032677E0,5.387552261E0,1.010734658E1
1.174115365E0,-2.064998865E0,8.286032677E0,5.377975464E0,1.009183719E1
1.176115365E0,-2.024297476E0,8.290821075E0,5.356427670E0,1.007605140E1
1.178115365E0,-1.993172884E0,8.293215752E0,5.327397823E0,1.005640757E1
1.180115365E0,-1.993172884E0,8.293215752E0,5.298667431E0,1.004121717E1
1.182115365E0,-2.012326479E0,8.298004150E0,5.262754440E0,1.003010045E1
1.184115365E0,-2.005143881E0,8.309974670E0,5.234024048E0,1.002353674E1
1.186115365E0,-1.974019289E0,8.333916664E0,5.222053051E0,1.003098984E1
1.188115365E0,-1.944989562E0,8.355464935E0,5.229235649E0,1.004697388E1
1.190115365E0,-1.921047568E0,8.372223854E0,5.245995045E0,1.006503949E1
1.192115365E0,-1.882740378E0,8.386589050E0,5.257966042E0,1.007600090E1
1.194115365E0,-1.849221587E0,8.393772125E0,5.262754440E0,1.007827442E1
1.196115365E0,-1.832462072E0,8.398560524E0,5.257966042E0,1.007670298E1
1.198115365E0,-1.825279474E0,8.403348923E0,5.260360241E0,1.008064026E1
1.200115365E0,-1.798943281E0,8.393772125E0,5.255571842E0,1.006541816E1
1.202115365E0,-1.741482496E0,8.369830132E0,5.243600845E0,1.002906614E1
1.204115365E0,-1.686415792E0,8.343493462E0,5.234024048E0,9.992641748E0
1.206115365E0,-1.657685399E0,8.324339867E0,5.217264652E0,9.963052020E0
1.208115365E0,-1.607407212E0,8.300397873E0,5.190928459E0,9.920992947E0
1.210115365E0,-1.394023895E0,8.216601372E0,5.164592266E0,9.804532319E0
1.212115365E0,-1.101931334E0,8.122927666E0,5.159803867E0,9.686061247E0
1.214115365E0,-1.037287831E0,8.096591949E0,5.147832870E0,9.650437840E0
1.216115365E0,-1.147421122E0,8.125322342E0,5.123890877E0,9.674280134E0
1.218115365E0,-1.245583415E0,8.171111107E0,5.087977886E0,9.705980308E0
1.220115365E0,-1.240795016E0,8.209418297E0,5.049670696E0,9.717679516E0
1.222115365E0,-1.188122630E0,8.235754967E0,5.006575108E0,9.711080762E0
1.224115365E0,-1.140238523E0,8.281244278E0,4.975450516E0,9.728014110E0
1.226115365E0,-1.109113932E0,8.451232910E0,5.018546104E0,9.891373839E0
1.228115365E0,-1.073200941E0,8.700229645E0,5.123890877E0,1.015381770E1
1.230115365E0,-1.051653147E0,8.805873871E0,5.071218491E0,1.021599951E1
1.232115365E0,-1.034893632E0,8.734047890E0,4.860528946E0,1.004884765E1
1.234115365E0,-1.013345838E0,8.614038467E0,4.671087742E0,9.851273481E0
1.236115365E0,-1.010951638E0,8.525452614E0,4.587290287E0,9.733889133E0
1.238115365E0,-1.015740037E0,8.472780228E0,4.582501888E0,9.686023754E0
1.240115365E0,-1.006163239E0,8.463203430E0,4.608838081E0,9.689146775E0
1.242115365E0,-1.003769040E0,8.499116898E0,4.637568474E0,9.733939679E0
1.244115365E0,-9.774328470E-1,8.542212486E0,4.673481941E0,9.786020774E0
1.246115365E0,-9.080010056E-1,8.592490196E0,4.721365929E0,9.846148985E0
1.248115365E0,-8.505401611E-1,8.657134056E0,4.759673119E0,9.915839693E0
1.250115365E0,-7.975684404E-1,8.724471092E0,4.779125690E0,9.979606887E0
1.252115365E0,-7.041945457E-1,8.793902397E0,4.798279285E0,1.004251430E1
1.254115365E0,-6.180033088E-1,8.889671326E0,4.824615479E0,1.013336562E1
1.256115365E0,-5.868787169E-1,9.006986618E0,4.846163750E0,1.024478100E1
1.258115365E0,-5.581482649E-1,9.114726067E0,4.855740547E0,1.034253243E1
1.260115365E0,-4.647744000E-1,9.181763649E0,4.882076740E0,1.040939346E1
1.262115365E0,-3.211222887E-1,9.217676163E0,4.939537525E0,1.046268151E1
1.264115365E0,-1.891419291E-1,9.239224434E0,5.006575108E0,1.051022536E1
1.266115365E0,-9.576806426E-2,9.258378029E0,5.059247494E0,1.055095827E1
1.268115365E0,-2.633621916E-2,9.263166428E0,5.092766285E0,1.057086630E1
1.270115365E0,3.591302410E-2,9.253589630E0,5.116708279E0,1.057406802E1
1.272115365E0,8.858546615E-2,9.227252960E0,5.131073475E0,1.055831235E1
1.274115365E0,1.340752989E-1,9.193734169E0,5.126285076E0,1.052718019E1
1.276115365E0,1.771709323E-1,9.148244858E0,5.099948883E0,1.047526859E1
1.278115365E0,2.130839527E-1,9.102754593E0,5.056853294E0,1.041524417E1
1.280115365E0,2.394201756E-1,9.064447403E0,4.989815712E0,1.034986906E1
1.282115365E0,2.537853718E-1,9.038111687E0,4.915595531E0,1.029149889E1
1.284115365E0,2.681505978E-1,9.023746490E0,4.867711544E0,1.025643803E1
1.286115365E0,2.876034677E-1,9.026140213E0,4.848557949E0,1.024999693E1
1.288115365E0,3.235165179E-1,9.033323288E0,4.846163750E0,1.025626129E1
1.290115365E0,3.714005351E-1,9.038111687E0,4.860528946E0,1.026889200E1
1.292115365E0,4.216787815E-1,9.040505409E0,4.882076740E0,1.028315245E1
1.294115365E0,4.671685994E-1,9.047688484E0,4.903624535E0,1.030167205E1
1.296115365E0,5.030816197E-1,9.064447403E0,4.922778130E0,1.032719915E1
1.298115365E0,5.270236731E-1,9.085995674E0,4.951508522E0,1.036100902E1
1.300115365E0,5.509656668E-1,9.107542992E0,4.994604111E0,1.040177738E1
1.302115365E0,5.653308630E-1,9.124302864E0,5.044882298E0,1.044142419E1
1.304115365E0,5.677250624E-1,9.138668060E0,5.102343082E0,1.048195929E1
1.306115365E0,5.653308630E-1,9.150638580E0,5.164592266E0,1.052268020E1
1.308115365E0,5.629366636E-1,9.162610054E0,5.229235649E0,1.056481075E1
1.310115365E0,5.701192617E-1,9.179368973E0,5.293879032E0,1.061183330E1
1.312115365E0,5.868787169E-1,9.186552048E0,5.346850872E0,1.064546755E1
1.314115365E0,6.156091094E-1,9.188945770E0,5.387552261E0,1.066964940E1
1.316115365E0,6.395511031E-1,9.184157372E0,5.423465252E0,1.068511804E1
1.318115365E0,6.610989571E-1,9.184157372E0,5.449801445E0,1.069981936E1
1.320115365E0,6.826467514E-1,9.188945770E0,5.466560841E0,1.071382370E1
1.322115365E0,7.089830041E-1,9.196128845E0,5.478531837E0,1.072780284E1
1.324115365E0,7.329249978E-1,9.193734169E0,5.490502834E0,1.073347793E1
1.326115365E0,7.496843934E-1,9.196128845E0,5.488108635E0,1.073546221E1
1.328115365E0,7.568669915E-1,9.200917244E0,5.473743439E0,1.073273465E1
1.330115365E0,7.568669915E-1,9.212887764E0,5.454589844E0,1.073325202E1
1.332115365E0,7.425017953E-1,9.227252960E0,5.442618847E0,1.073851042E1
1.334115365E0,7.137714028E-1,9.248801231E0,5.447407246E0,1.075751084E1
1.336115365E0,6.730699539E-1,9.270648003E0,5.473743439E0,1.078702020E1
1.338115365E0,6.371569037E-1,9.287407875E0,5.516839504E0,1.082115669E1
1.340115365E0,6.203975081E-1,9.294589996E0,5.574300289E0,1.085574134E1
1.342115365E0,6.251859069E-1,9.301773071E0,5.629366875E0,1.089052850E1
1.344115365E0,6.419453025E-1,9.318531990E0,5.665279865E0,1.092440059E1
1.346115365E0,6.634931564E-1,9.330503464E0,5.684433460E0,1.094583491E1
1.348115365E0,6.898293495E-1,9.337685585E0,5.701192856E0,1.096229158E1
1.350115365E0,7.257423997E-1,9.347262383E0,5.715558052E0,1.098023770E1
1.352115365E0,7.712322474E-1,9.359233856E0,5.725134850E0,1.099851020E1
1.354115365E0,8.215104342E-1,9.371204376E0,5.739500046E0,1.101980996E1
1.356115365E0,8.792705536E-1,9.380781174E0,5.739500046E0,1.103240830E1
1.358115365E0,9.391255975E-1,9.392752647E0,5.729923248E0,1.104254407E1
1.360115365E0,9.965864420E-1,9.404723167E0,5.713163853E0,1.104908338E1
1.362115365E0,1.049258947E0,9.416694641E0,5.703587055E0,1.105920375E1
1.364115365E0,1.101931334E0,9.421483040E0,5.713163853E0,1.107333900E1
1.366115365E0,1.154603720E0,9.423876762E0,5.727529049E0,1.108815368E1
1.368115365E0,1.197699428E0,9.423876762E0,5.720346451E0,1.108901712E1
1.370115365E0,1.228824019E0,9.426271439E0,5.696404457E0,1.108213091E1
1.372115365E0,1.250371814E0,9.431059837E0,5.653308868E0,1.106653607E1
1.374115365E0,1.262342811E0,9.433453560E0,5.603030682E0,1.104434282E1
1.376115365E0,1.274313807E0,9.438241959E0,5.550358295E0,1.102319210E1
1.378115365E0,1.276708007E0,9.435848236E0,5.497685432E0,1.099498797E1
1.380115365E0,1.262342811E0,9.433453560E0,5.447407246E0,1.096621180E1
1.382115365E0,1.243189216E0,9.438241959E0,5.397129059E0,1.094325970E1
1.384115365E0,1.221641421E0,9.438241959E0,5.349245071E0,1.091729096E1
1.386115365E0,1.200093627E0,9.438241959E0,5.303455830E0,1.089253321E1
1.388115365E0,1.178545833E0,9.438241959E0,5.269937038E0,1.087389617E1
1.390115365E0,1.152209520E0,9.440636635E0,5.236418247E0,1.085694630E1
1.392115365E0,1.116296530E0,9.438241959E0,5.205293655E0,1.083612529E1
1.394115365E0,1.085171938E0,9.431059837E0,5.176563263E0,1.081292259E1
1.396115365E0,1.046864748E0,9.414299965E0,5.159803867E0,1.078649830E1
1.398115365E0,9.965864420E-1,9.392752647E0,5.152621269E0,1.075948385E1
1.400115365E0,9.343371987E-1,9.364022255E0,5.152621269E0,1.072881190E1
1.402115365E0,8.744821548E-1,9.325715065E0,5.152621269E0,1.069033145E1
1.404115365E0,8.239046335E-1,9.289801598E0,5.150227070E0,1.065382896E1
1.406115365E0,7.712322474E-1,9.251194954E0,5.147832870E0,1.061506432E1
1.408115365E0,7.137714028E-1,9.205705643E0,5.140650272E0,1.056791234E1
1.410115365E0,6.539163589E-1,9.150638580E0,5.123890877E0,1.050790420E1
1.412115365E0,5.868787169E-1,9.095572472E0,5.097554684E0,1.044312831E1
1.414115365E0,5.198410153E-1,9.052476883E0,5.066430092E0,1.038683235E1
1.416115365E0,4.671685994E-1,9.004592896E0,5.035305500E0,1.032740244E1
1.418115365E0,4.097077549E-1,8.954314232E0,4.989815712E0,1.025894072E1
1.420115365E0,3.283049166E-1,8.911218643E0,4.939537525E0,1.019395079E1
1.422115365E0,2.394201756E-1,8.882488251E0,4.882076740E0,1.013856957E1
1.424115365E0,1.628057212E-1,8.863334656E0,4.824615479E0,1.009267662E1
1.426115365E0,9.816227108E-2,8.848969460E0,4.776731491E0,1.005639399E1
1.428115365E0,3.351882473E-2,8.834604263E0,4.742913723E0,1.002729209E1
1.430115365E0,-2.394201607E-2,8.815450668E0,4.716577530E0,9.997942153E0
1.432115365E0,-7.900865376E-2,8.798690796E0,4.683058739E0,9.967659767E0
1.434115365E0,-1.340752989E-1,8.786720276E0,4.635174274E0,9.935253894E0
1.436115365E0,-1.915361285E-1,8.769960403E0,4.577713490E0,9.894662822E0
1.438115365E0,-2.489969730E-1,8.755595207E0,4.508281708E0,9.851246159E0
1.440115365E0,-3.091512918E-1,8.743624687E0,4.434061527E0,9.808539586E0
1.442115365E0,-3.666121364E-1,8.729259491E0,4.357447147E0,9.763284353E0
1.444115365E0,-4.216787815E-1,8.714894295E0,4.288015366E0,9.721845058E0
1.446115365E0,-4.743511975E-1,8.697835922E0,4.216189384E0,9.677479616E0
1.448115365E0,-5.222352743E-1,8.681076050E0,4.134487152E0,9.629527251E0
1.450115365E0,-5.725134611E-1,8.661922455E0,4.050690174E0,9.579392630E0
1.452115365E0,-6.227917075E-1,8.642768860E0,3.971681356E0,9.532028948E0
1.454115365E0,-6.682815552E-1,8.626008987E0,3.887884378E0,9.485266271E0
1.456115365E0,-7.041945457E-1,8.609250069E0,3.794510365E0,9.434690541E0
1.458115365E0,-7.377133965E-1,8.587701797E0,3.691559792E0,9.376590900E0
1.460115365E0,-7.736264467E-1,8.570942879E0,3.578732967E0,9.320240842E0
1.462115365E0,-8.023568392E-1,8.554183006E0,3.463811398E0,9.263682464E0
1.464115365E0,-8.191162348E-1,8.532635689E0,3.334524393E0,9.197601651E0
1.466115365E0,-8.334814906E-1,8.511087418E0,3.188478231E0,9.126866596E0
1.468115365E0,-8.505401611E-1,8.494328499E0,3.032555819E0,9.059438725E0
1.470115365E0,-8.696937561E-1,8.482357025E0,2.879326820E0,8.999848380E0
1.472115365E0,-8.744821548E-1,8.470386505E0,2.735674620E0,8.944052896E0
1.474115365E0,-8.696937561E-1,8.465598106E0,2.592022657E0,8.896139611E0
1.476115365E0,-8.601169586E-1,8.463203430E0,2.450465441E0,8.852705482E0
1.478115365E0,-8.481459618E-1,8.463203430E0,2.318784237E0,8.816003869E0
1.480115365E0,-8.191162348E-1,8.460809708E0,2.220622063E0,8.785636839E0
1.482115365E0,-7.640495896E-1,8.467991829E0,2.208651066E0,8.784577219E0
1.484115365E0,-6.994061470E-1,8.477568626E0,2.242169857E0,8.796912211E0
1.486115365E0,-6.682815552E-1,8.487145424E0,2.187103271E0,8.789861114E0
1.488115365E0,-6.754641533E-1,8.503905296E0,2.017114878E0,8.765923200E0
1.490115365E0,-6.994061470E-1,8.527847290E0,1.808520079E0,8.745518466E0
1.492115365E0,-7.209540009E-1,8.549394608E0,1.640926003E0,8.735248192E0
1.494115365E0,-7.185598016E-1,8.563759804E0,1.530792713E0,8.729125758E0
1.496115365E0,-7.018003464E-1,8.575731277E0,1.463755012E0,8.728016350E0
1.498115365E0,-6.946177483E-1,8.599673271E0,1.435024619E0,8.746208884E0
1.500115365E0,-7.041945457E-1,8.626008987E0,1.435024619E0,8.772868212E0
1.502115365E0,-7.281365991E-1,8.645163536E0,1.449389815E0,8.796008544E0
1.504115365E0,-7.616553903E-1,8.654740334E0,1.473331928E0,8.812227649E0
1.506115365E0,-7.999626398E-1,8.659528732E0,1.502062321E0,8.825166815E0
1.508115365E0,-8.286930919E-1,8.659528732E0,1.516427517E0,8.830273072E0
1.510115365E0,-8.529343605E-1,8.657134056E0,1.511639118E0,8.829412206E0
1.512115365E0,-8.744821548E-1,8.654740334E0,1.487697124E0,8.825105779E0
1.514115365E0,-8.936358094E-1,8.640374184E0,1.449389815E0,8.806553346E0
1.516115365E0,-9.056068063E-1,8.621220589E0,1.403900027E0,8.781600276E0
1.518115365E0,-9.103952050E-1,8.604461670E0,1.367687702E0,8.759917220E0
1.520115365E0,-9.080010056E-1,8.587701797E0,1.358110905E0,8.741713403E0
1.522115365E0,-8.984242082E-1,8.570942879E0,1.355716705E0,8.723886500E0
1.524115365E0,-8.912416101E-1,8.561366081E0,1.322197914E0,8.708588181E0
1.526115365E0,-8.912416101E-1,8.549394608E0,1.247977614E0,8.685845260E0
1.528115365E0,-8.936358094E-1,8.539817810E0,1.156997919E0,8.664047401E0
1.530115365E0,-8.840589523E-1,8.544606209E0,1.066018343E0,8.656110593E0
1.532115365E0,-8.649053574E-1,8.554183006E0,9.846154451E-1,8.653991897E0
1.534115365E0,-8.433575630E-1,8.573336601E0,9.103952050E-1,8.662688491E0
1.536115365E0,-8.167220354E-1,8.597278595E0,8.433575630E-1,8.677066676E0
1.538115365E0,-7.808090448E-1,8.616432190E0,7.784148455E-1,8.686684990E0
1.540115365E0,-7.425017953E-1,8.633192062E0,7.185598016E-1,8.694805477E0
1.542115365E0,-7.209540009E-1,8.657134056E0,6.682815552E-1,8.712769076E0
1.544115365E0,-7.089830041E-1,8.690652847E0,6.156091094E-1,8.741228654E0
1.546115365E0,-6.970119476E-1,8.726864815E0,5.653308630E-1,8.772889725E0
1.548115365E0,-6.946177483E-1,8.755595207E0,5.222352743E-1,8.798617558E0
1.550115365E0,-7.065888047E-1,8.784325600E0,4.887164235E-1,8.826238594E0
1.552115365E0,-7.233482003E-1,8.820239067E0,4.695627987E-1,8.862298745E0
1.554115365E0,-7.401075959E-1,8.865729332E0,4.623802006E-1,8.908575155E0
1.556115365E0,-7.592611909E-1,8.913613319E0,4.719569981E-1,8.958332622E0
1.558115365E0,-7.903858423E-1,8.959102631E0,5.054758191E-1,9.008092780E0
1.560115365E0,-8.358756900E-1,9.006986618E0,5.653308630E-1,9.063337966E0
1.562115365E0,-8.912416101E-1,9.054870605E0,6.706757545E-1,9.123310762E0
1.564115365E0,-9.319429994E-1,9.097966194E0,8.143278360E-1,9.181755630E0
1.566115365E0,-9.630676508E-1,9.121908188E0,9.846154451E-1,9.225300855E0
1.568115365E0,-9.870096445E-1,9.138668060E0,1.154603720E0,9.264046184E0
1.570115365E0,-1.010951638E0,9.153033257E0,1.310226917E0,9.301437286E0
1.572115365E0,-1.032499433E0,9.165003777E0,1.439813018E0,9.334688577E0
1.574115365E0,-1.049258947E0,9.165003777E0,1.559523106E0,9.355765649E0
1.576115365E0,-1.063624144E0,9.157821655E0,1.669656396E0,9.369351433E0
1.578115365E0,-1.073200941E0,9.153033257E0,1.763030291E0,9.382859578E0
1.580115365E0,-1.089960337E0,9.150638580E0,1.846827388E0,9.398562197E0
1.582115365E0,-1.113902330E0,9.141061783E0,1.925835967E0,9.407902694E0
1.584115365E0,-1.137844324E0,9.133879662E0,2.007538080E0,9.420862833E0
1.586115365E0,-1.164180517E0,9.133879662E0,2.084152699E0,9.440697348E0
1.588115365E0,-1.195305228E0,9.129091263E0,2.141613483E0,9.452807529E0
1.590115365E0,-1.233612418E0,9.117119789E0,2.175132275E0,9.453828497E0
1.592115365E0,-1.264737010E0,9.097966194E0,2.189497471E0,9.442798724E0
1.594115365E0,-1.303044319E0,9.076418877E0,2.182314873E0,9.425592943E0
1.596115365E0,-1.343745708E0,9.057265282E0,2.153584480E0,9.406254995E0
1.598115365E0,-1.391629696E0,9.042900085E0,2.110488892E0,9.389613332E0
1.600115365E0,-1.446995616E0,9.033323288E0,2.048239470E0,9.374967246E0
1.602115365E0,-1.485302925E0,9.026140213E0,1.969230890E0,9.357093685E0
1.604115365E0,-1.506850719E0,9.023746490E0,1.877951980E0,9.339448777E0
1.606115365E0,-1.530792713E0,9.021351814E0,1.786972284E0,9.323163885E0
1.608115365E0,-1.569099903E0,9.026140213E0,1.722328901E0,9.322000777E0
1.610115365E0,-1.609801412E0,9.038111687E0,1.686415792E0,9.333966020E0
1.612115365E0,-1.638531804E0,9.047688484E0,1.631349206E0,9.338455633E0
1.614115365E0,-1.652897000E0,9.040505409E0,1.537975311E0,9.318163693E0
1.616115365E0,-1.660079598E0,9.030928612E0,1.415871024E0,9.290760282E0
1.618115365E0,-1.660079598E0,9.021351814E0,1.295861721E0,9.263903628E0
1.620115365E0,-1.652897000E0,9.018958092E0,1.190516829E0,9.246134537E0
1.622115365E0,-1.643320203E0,9.026140213E0,1.099537134E0,9.240167225E0
1.624115365E0,-1.633743405E0,9.038111687E0,1.018134236E0,9.240842911E0
1.626115365E0,-1.631349206E0,9.050082207E0,9.534908533E-1,9.245238395E0
1.628115365E0,-1.640926003E0,9.062053680E0,8.936358094E-1,9.252677451E0
1.630115365E0,-1.645714402E0,9.074024200E0,8.406640887E-1,9.260291961E0
1.632115365E0,-1.640926003E0,9.088389397E0,8.071452379E-1,9.270541700E0
1.634115365E0,-1.633743405E0,9.105149269E0,7.903858423E-1,9.284264672E0
1.636115365E0,-1.616984010E0,9.126696587E0,7.832032442E-1,9.301861921E0
1.638115365E0,-1.602618814E0,9.150638580E0,7.784148455E-1,9.322473017E0
1.640115365E0,-1.583465099E0,9.165003777E0,7.760206461E-1,9.333105806E0
1.642115365E0,-1.564311504E0,9.174580574E0,7.712322474E-1,9.338886356E0
1.644115365E0,-1.540369511E0,9.188945770E0,7.616553903E-1,9.348239488E0
1.646115365E0,-1.528398514E0,9.200917244E0,7.425017953E-1,9.356505174E0
1.648115365E0,-1.526004314E0,9.205705643E0,7.161656022E-1,9.358771218E0
1.650115365E0,-1.514033318E0,9.196128845E0,6.898293495E-1,9.345423862E0
1.652115365E0,-1.449389815E0,9.162610054E0,6.730699539E-1,9.300923449E0
1.654115365E0,-1.317409515E0,9.093177795E0,6.563105583E-1,9.211525053E0
1.656115365E0,-1.173757434E0,9.016563416E0,6.275801063E-1,9.114273374E0
1.658115365E0,-1.161786318E0,9.006986618E0,5.892729163E-1,9.100703157E0
1.660115365E0,-1.295861721E0,9.052476883E0,5.677250624E-1,9.162363618E0
1.662115365E0,-1.444601417E0,9.107542992E0,5.581482649E-1,9.238275926E0
1.664115365E0,-1.526004314E0,9.145850182E0,5.342062712E-1,9.287660688E0
1.666115365E0,-1.557128906E0,9.176975250E0,4.815338254E-1,9.320590110E0
1.668115365E0,-1.564311504E0,9.205705643E0,4.001309574E-1,9.346239439E0
1.670115365E0,-1.552340508E0,9.234436035E0,3.235165179E-1,9.369590860E0
1.672115365E0,-1.528398514E0,9.253589630E0,2.537853718E-1,9.382394688E0
1.674115365E0,-1.502062321E0,9.265859604E0,1.987187415E-1,9.388920841E0
1.676115365E0,-1.490091324E0,9.287407875E0,1.628057212E-1,9.407593895E0
1.678115365E0,-1.502062321E0,9.313743591E0,1.460463107E-1,9.435218091E0
1.680115365E0,-1.511639118E0,9.337685585E0,1.412578970E-1,9.460305423E0
1.682115365E0,-1.502062321E0,9.354445457E0,1.364694983E-1,9.475255403E0
1.684115365E0,-1.490091324E0,9.366415977E0,1.221042871E-1,9.484989714E0
1.686115365E0,-1.485302925E0,9.380781174E0,1.005564705E-1,9.498173078E0
1.688115365E0,-1.468543410E0,9.390357971E0,7.900865376E-2,9.504824298E0
1.690115365E0,-1.427842021E0,9.385569572E0,5.746084079E-2,9.493732184E0
1.692115365E0,-1.365293503E0,9.368810654E0,4.070143029E-2,9.467855936E0
1.694115365E0,-1.288679123E0,9.347262383E0,3.351882473E-2,9.435736932E0
1.696115365E0,-1.221641421E0,9.337685585E0,3.351882473E-2,9.417319330E0
1.698115365E0,-1.164180517E0,9.335291862E0,3.591302410E-2,9.407671347E0
1.700115365E0,-1.118690729E0,9.337685585E0,5.506663769E-2,9.404619789E0
1.702115365E0,-1.070806742E0,9.330503464E0,8.619125932E-2,9.392143041E0
1.704115365E0,-1.027711034E0,9.316138268E0,1.173158810E-1,9.373387072E0
1.706115365E0,-9.798270464E-1,9.306561470E0,1.388636976E-1,9.359029360E0
1.708115365E0,-9.271546006E-1,9.304166794E0,1.388636976E-1,9.351278977E0
1.710115365E0,-8.696937561E-1,9.301773071E0,1.173158810E-1,9.343078321E0
1.712115365E0,-8.071452379E-1,9.294589996E0,8.379705995E-2,9.329946869E0
1.714115365E0,-7.496843934E-1,9.280224800E0,4.548983276E-2,9.310567564E0
1.716115365E0,-7.233482003E-1,9.320926666E0,9.576806799E-3,9.348957068E0
1.718115365E0,-7.544727921E-1,9.495702744E0,2.633621916E-2,9.525664984E0
1.720115365E0,-7.879916430E-1,9.632172585E0,3.591302410E-2,9.664417689E0
1.722115365E0,-8.481459618E-1,9.711181641E0,4.788403399E-3,9.748149740E0
1.724115365E0,-9.391255975E-1,9.696816444E0,-3.112462163E-2,9.742236642E0
1.726115365E0,-8.601169586E-1,9.457395554E0,-7.182604820E-2,9.496698943E0
1.728115365E0,-5.796960592E-1,9.093177795E0,-1.077390760E-1,9.112274011E0
1.730115365E0,-2.801215947E-1,8.772355080E0,-1.149216816E-1,8.777578752E0
1.732115365E0,-1.149216816E-1,8.568548203E0,-1.244984865E-1,8.570223169E0
1.734115365E0,-9.337386489E-2,8.467991829E0,-1.891419291E-1,8.470618570E0
1.736115365E0,-1.316810995E-1,8.446444511E0,-3.115454912E-1,8.453213909E0
1.738115365E0,-1.508347094E-1,8.467991829E0,-4.528034031E-1,8.481430755E0
1.740115365E0,-1.244984865E-1,8.513482094E0,-5.557540655E-1,8.532510757E0
1.742115365E0,-6.703764945E-2,8.587701797E0,-6.060323119E-1,8.609320030E0
1.744115365E0,0.000000000E0,8.705317497E0,-6.227917075E-1,8.727566799E0
1.746115365E0,4.788403213E-2,8.841787338E0,-6.347627044E-1,8.864672578E0
1.748115365E0,6.224924326E-2,8.990227699E0,-6.778583527E-1,9.015961457E0
1.750115365E0,6.224924326E-2,9.141061783E0,-7.472901940E-1,9.171767993E0
1.752115365E0,6.464344263E-2,9.277831078E0,-8.358756900E-1,9.315632906E0
1.754115365E0,5.985504389E-2,9.378387451E0,-9.463081956E-1,9.426199288E0
1.756115365E0,5.506663769E-2,9.445425034E0,-1.075595140E0,9.506628809E0
1.758115365E0,5.746084079E-2,9.478943825E0,-1.207276225E0,9.555689073E0
1.760115365E0,6.224924326E-2,9.474155426E0,-1.322197914E0,9.566174958E0
1.762115365E0,7.182604820E-2,9.435848236E0,-1.415871024E0,9.541754643E0
1.764115365E0,8.379705995E-2,9.371204376E0,-1.480514526E0,9.487803575E0
1.766115365E0,9.337386489E-2,9.289801598E0,-1.521215916E0,9.413991197E0
1.768115365E0,8.619125932E-2,9.196128845E0,-1.547552109E0,9.325831448E0
1.770115365E0,7.422025502E-2,9.105149269E0,-1.564311504E0,9.238848540E0
1.772115365E0,6.943184882E-2,9.016563416E0,-1.561917305E0,9.151110439E0
1.774115365E0,7.661445439E-2,8.947132111E0,-1.545157909E0,9.079898443E0
1.776115365E0,9.097966552E-2,8.906430244E0,-1.526004314E0,9.036673402E0
1.778115365E0,9.816227108E-2,8.894459724E0,-1.516427517E0,9.023336525E0
1.780115365E0,1.029506698E-1,8.896853447E0,-1.506850719E0,9.024145344E0
1.782115365E0,1.077390760E-1,8.916007042E0,-1.480514526E0,9.038734012E0
1.784115365E0,1.268926859E-1,8.947132111E0,-1.446995616E0,9.064274437E0
1.786115365E0,1.556231081E-1,8.997409821E0,-1.418265224E0,9.109834152E0
1.788115365E0,1.915361285E-1,9.050082207E0,-1.396418095E0,9.159184327E0
1.790115365E0,2.322375625E-1,9.102754593E0,-1.384447098E0,9.210362058E0
1.792115365E0,2.657563984E-1,9.148244858E0,-1.370081902E0,9.254087468E0
1.794115365E0,2.876034677E-1,9.181763649E0,-1.358110905E0,9.286116771E0
1.796115365E0,3.067570925E-1,9.208099365E0,-1.343745708E0,9.310684527E0
1.798115365E0,3.378817141E-1,9.229647636E0,-1.322197914E0,9.329992865E0
1.800115365E0,3.666121364E-1,9.239224434E0,-1.298255920E0,9.337191282E0
1.802115365E0,3.737947345E-1,9.246406555E0,-1.274313807E0,9.341286441E0
1.804115365E0,3.594295382E-1,9.253589630E0,-1.257554412E0,9.345563318E0
1.806115365E0,3.426701128E-1,9.258378029E0,-1.257554412E0,9.349675376E0
1.808115365E0,3.259107172E-1,9.260771751E0,-1.247977614E0,9.350163600E0
1.810115365E0,3.163338900E-1,9.255983353E0,-1.207276225E0,9.339743617E0
1.812115365E0,3.067570925E-1,9.255983353E0,-1.140238523E0,9.330995211E0
1.814115365E0,3.067570925E-1,9.258378029E0,-1.066018343E0,9.324594294E0
1.816115365E0,3.187280893E-1,9.260771751E0,-9.822212458E-1,9.318167180E0
1.818115365E0,3.378817141E-1,9.251194954E0,-8.960300088E-1,9.300625888E0
1.820115365E0,3.522469103E-1,9.236829758E0,-8.023568392E-1,9.278301480E0
1.822115365E0,3.714005351E-1,9.232041359E0,-6.994061470E-1,9.265942746E0
1.824115365E0,3.929483593E-1,9.232041359E0,-5.868787169E-1,9.259018452E0
1.826115365E0,4.121019542E-1,9.234436035E0,-4.695627987E-1,9.255545696E0
1.828115365E0,4.264671803E-1,9.236829758E0,-3.450643122E-1,9.253105836E0
1.830115365E0,4.456208050E-1,9.232041359E0,-2.178723514E-1,9.245357425E0
1.832115365E0,4.743511975E-1,9.220070839E0,-1.053448766E-1,9.232865908E0
1.834115365E0,5.078700185E-1,9.210494041E0,4.788403399E-3,9.224486727E0
1.836115365E0,5.389946699E-1,9.205705643E0,1.173158810E-1,9.222217448E0
1.838115365E0,5.701192617E-1,9.198522568E0,2.274491638E-1,9.218979690E0
1.840115365E0,6.060323119E-1,9.198522568E0,3.330933154E-1,9.224480676E0
1.842115365E0,6.443395615E-1,9.196128845E0,4.480150044E-1,9.229554521E0
1.844115365E0,6.754641533E-1,9.186552048E0,5.485714674E-1,9.227671483E0
1.846115365E0,6.970119476E-1,9.184157372E0,6.323685050E-1,9.232251199E0
1.848115365E0,7.041945457E-1,9.193734169E0,7.209540009E-1,9.248806009E0
1.850115365E0,6.922235489E-1,9.212887764E0,8.310872912E-1,9.276161948E0
1.852115365E0,6.395511031E-1,9.273042679E0,9.582792521E-1,9.344337604E0
1.854115365E0,5.006874204E-1,9.450213432E0,1.113902330E0,9.528798466E0
1.856115365E0,4.480150044E-1,9.553164482E0,1.233612418E0,9.642897317E0
1.858115365E0,5.820902586E-1,9.474155426E0,1.243189216E0,9.573085685E0
1.860115365E0,7.616553903E-1,9.316138268E0,1.185728431E0,9.422128372E0
1.862115365E0,8.457517624E-1,9.196128845E0,1.164180517E0,9.308028688E0
1.864115365E0,8.286930919E-1,9.136273384E0,1.255160213E0,9.259246770E0
1.866115365E0,7.544727921E-1,9.102754593E0,1.442207217E0,9.247125609E0
1.868115365E0,6.539163589E-1,9.076418877E0,1.648108602E0,9.247986170E0
1.870115365E0,5.629366636E-1,9.052476883E0,1.798943281E0,9.246644382E0
1.872115365E0,4.935048223E-1,9.040505409E0,1.868375182E0,9.244734225E0
1.874115365E0,4.288613796E-1,9.057265282E0,1.885134578E0,9.261301682E0
1.876115365E0,3.737947345E-1,9.117119789E0,1.892317176E0,9.318930199E0
1.878115365E0,3.235165179E-1,9.205705643E0,1.870769382E0,9.399439206E0
1.880115365E0,2.923918962E-1,9.294589996E0,1.825279474E0,9.476631331E0
1.882115365E0,3.259107172E-1,9.361627579E0,1.818096876E0,9.542104850E0
1.884115365E0,4.240729809E-1,9.409511566E0,1.856404185E0,9.600259492E0
1.886115365E0,5.509656668E-1,9.457395554E0,1.916259170E0,9.665295807E0
1.888115365E0,6.563105583E-1,9.505280495E0,1.976413488E0,9.730740522E0
1.890115365E0,7.281365991E-1,9.543587685E0,2.038662672E0,9.786030569E0
1.892115365E0,7.664438486E-1,9.577106476E0,2.105700493E0,9.835770391E0
1.894115365E0,7.808090448E-1,9.608230591E0,2.172738075E0,9.881728017E0
1.896115365E0,7.784148455E-1,9.634567261E0,2.215833664E0,9.916689710E0
1.898115365E0,7.688380480E-1,9.641749382E0,2.249352455E0,9.930459685E0
1.900115365E0,7.568669915E-1,9.641749382E0,2.268506050E0,9.933896440E0
1.902115365E0,7.377133965E-1,9.636960983E0,2.280477047E0,9.930549512E0
1.904115365E0,7.185598016E-1,9.636960983E0,2.290053844E0,9.931348941E0
1.906115365E0,6.994061470E-1,9.629778862E0,2.313995838E0,9.928564178E0
1.908115365E0,6.754641533E-1,9.617807388E0,2.357091665E0,9.925439633E0
1.910115365E0,6.443395615E-1,9.603442192E0,2.407369852E0,9.921527353E0
1.912115365E0,6.251859069E-1,9.603442192E0,2.462436438E0,9.933808563E0
1.914115365E0,6.084265113E-1,9.615413666E0,2.527379274E0,9.960622911E0
1.916115365E0,5.940613151E-1,9.624990463E0,2.608782053E0,9.989949653E0
1.918115365E0,5.820902586E-1,9.629778862E0,2.704550028E0,1.001928445E1
1.920115365E0,5.773018599E-1,9.634567261E0,2.802712440E0,1.005054032E1
1.922115365E0,5.629366636E-1,9.644144058E0,2.900874615E0,1.008669846E1
1.924115365E0,5.485714674E-1,9.665691376E0,2.994248390E0,1.013370830E1
1.926115365E0,5.437830687E-1,9.689633369E0,3.097498417E0,1.018720724E1
1.928115365E0,5.485714674E-1,9.706393242E0,3.214814425E0,1.023963047E1
1.930115365E0,5.557540655E-1,9.711181641E0,3.344101191E0,1.028586040E1
1.932115365E0,5.485714674E-1,9.715970039E0,3.466205597E0,1.033032360E1
1.934115365E0,5.366004705E-1,9.718363762E0,3.571550369E0,1.036776284E1
1.936115365E0,5.174468160E-1,9.711181641E0,3.681982994E0,1.039864409E1
1.938115365E0,4.911106229E-1,9.696816444E0,3.789721966E0,1.042264033E1
1.940115365E0,4.695627987E-1,9.682451248E0,3.885490179E0,1.044353318E1
1.942115365E0,4.504092038E-1,9.665691376E0,3.976469755E0,1.046139426E1
1.944115365E0,4.384381771E-1,9.648932457E0,4.065055370E0,1.047944659E1
1.946115365E0,4.312555790E-1,9.634567261E0,4.146458149E0,1.049780848E1
1.948115365E0,4.360439777E-1,9.624990463E0,4.220977783E0,1.051889867E1
1.950115365E0,4.408323765E-1,9.613018990E0,4.273650169E0,1.052941371E1
1.952115365E0,4.384381771E-1,9.601048470E0,4.292803764E0,1.052618278E1
1.954115365E0,4.336497784E-1,9.584288597E0,4.292803764E0,1.051069951E1
1.956115365E0,4.240729809E-1,9.562741280E0,4.283226967E0,1.048674840E1
1.958115365E0,4.192845821E-1,9.545981407E0,4.264073372E0,1.046345461E1
1.960115365E0,4.121019542E-1,9.538799286E0,4.232948780E0,1.044396358E1
1.962115365E0,4.073135555E-1,9.536404610E0,4.194342136E0,1.042599747E1
1.964115365E0,4.097077549E-1,9.526827812E0,4.146458149E0,1.039814521E1
1.966115365E0,4.144961834E-1,9.519645691E0,4.096179962E0,1.037179596E1
1.968115365E0,4.264671803E-1,9.514857292E0,4.048295975E0,1.034906198E1
1.970115365E0,4.384381771E-1,9.502885818E0,3.993229151E0,1.031711907E1
1.972115365E0,4.480150044E-1,9.488520622E0,3.930979967E0,1.028033776E1
1.974115365E0,4.599860013E-1,9.464578629E0,3.868730783E0,1.023508249E1
1.976115365E0,4.719569981E-1,9.440636635E0,3.804087162E0,1.018918263E1
1.978115365E0,4.887164235E-1,9.423876762E0,3.749020576E0,1.015398701E1
1.980115365E0,5.102642179E-1,9.421483040E0,3.705924988E0,1.013699128E1
1.982115365E0,5.342062712E-1,9.423876762E0,3.674800396E0,1.012911583E1
1.984115365E0,5.677250624E-1,9.423876762E0,3.653252602E0,1.012314277E1
1.986115365E0,6.012439132E-1,9.421483040E0,3.638587952E0,1.011756686E1
1.988115365E0,6.299743056E-1,9.428665161E0,3.645770550E0,1.012858516E1
1.990115365E0,6.563105583E-1,9.445425034E0,3.670011997E0,1.015459431E1
1.992115365E0,6.706757545E-1,9.466972351E0,3.698742390E0,1.018597402E1
1.994115365E0,6.730699539E-1,9.483732224E0,3.734655380E0,1.021478589E1
1.996115365E0,6.682815552E-1,9.493309021E0,3.780145168E0,1.024006904E1
1.998115365E0,6.587047577E-1,9.498097420E0,3.832817554E0,1.026344177E1
2.000115365E0,6.419453025E-1,9.502885818E0,3.892672777E0,1.028930678E1
2.002115365E0,6.180033088E-1,9.512462616E0,3.954921961E0,1.032038182E1
2.004115365E0,5.940613151E-1,9.514857292E0,4.024353981E0,1.034798739E1
2.006115365E0,5.677250624E-1,9.510068893E0,4.103362560E0,1.037310495E1
2.008115365E0,5.389946699E-1,9.507674217E0,4.184765339E0,1.040185778E1
2.010115365E0,5.102642179E-1,9.502885818E0,4.259284973E0,1.042625134E1
2.012115365E0,4.719569981E-1,9.500492096E0,4.321534157E0,1.044785868E1
2.014115365E0,4.288613796E-1,9.502885818E0,4.371812344E0,1.046907370E1
2.016115365E0,3.809773326E-1,9.502885818E0,4.414907932E0,1.048529421E1
2.018115365E0,3.330933154E-1,9.500492096E0,4.455609322E0,1.049870257E1
2.020115365E0,2.801215947E-1,9.498097420E0,4.498704910E0,1.051335667E1
2.022115365E0,2.178723514E-1,9.502885818E0,4.548983097E0,1.053781545E1
2.024115365E0,1.508347094E-1,9.510068893E0,4.604049683E0,1.056699744E1
2.026115365E0,8.619125932E-2,9.517251015E0,4.649539471E0,1.059262541E1
2.028115365E0,1.675941236E-2,9.514857292E0,4.673481941E0,1.060067090E1
2.030115365E0,-4.788403213E-2,9.507674217E0,4.692635536E0,1.060278219E1
2.032115365E0,-1.005564705E-1,9.502885818E0,4.716577530E0,1.060947944E1
2.034115365E0,-1.364694983E-1,9.498097420E0,4.733336926E0,1.061305597E1
2.036115365E0,-1.556231081E-1,9.490914345E0,4.735731125E0,1.060796036E1
2.038115365E0,-1.747767180E-1,9.483732224E0,4.730942726E0,1.059969541E1
2.040115365E0,-1.963245422E-1,9.486125946E0,4.733336926E0,1.060328285E1
2.042115365E0,-2.178723514E-1,9.490914345E0,4.730942726E0,1.060691956E1
2.044115365E0,-2.322375625E-1,9.488520622E0,4.718971729E0,1.059974774E1
2.046115365E0,-2.394201756E-1,9.481337547E0,4.687847137E0,1.057965002E1
2.048115365E0,-2.442085743E-1,9.476549149E0,4.647145271E0,1.055748932E1
2.050115365E0,-2.561795712E-1,9.478943825E0,4.616020679E0,1.054626241E1
2.052115365E0,-2.657563984E-1,9.483732224E0,4.587290287E0,1.053826530E1
2.054115365E0,-2.777273953E-1,9.495702744E0,4.553771496E0,1.053481552E1
2.056115365E0,-2.852092683E-1,9.512462616E0,4.517858505E0,1.053467298E1
2.058115365E0,-2.995744944E-1,9.526827812E0,4.481945515E0,1.053271231E1
2.060115365E0,-3.139396906E-1,9.531616211E0,4.438849926E0,1.051920408E1
2.062115365E0,-3.259107172E-1,9.531616211E0,4.393360138E0,1.050045421E1
2.064115365E0,-3.259107172E-1,9.529222488E0,4.345476151E0,1.047833298E1
2.066115365E0,-3.115454912E-1,9.526827812E0,4.288015366E0,1.045201342E1
2.068115365E0,-3.139396906E-1,9.526827812E0,4.232948780E0,1.042961465E1
2.070115365E0,-3.378817141E-1,9.531616211E0,4.191947937E0,1.041817158E1
2.072115365E0,-3.115454912E-1,9.478943825E0,4.151246548E0,1.035279115E1
2.074115365E0,-1.580173075E-1,9.337685585E0,4.086603165E0,1.019400152E1
2.076115365E0,-5.506663769E-2,9.263166428E0,4.021959782E0,1.009878434E1
2.078115365E0,-1.364694983E-1,9.306561470E0,4.000411987E0,1.013084431E1
2.080115365E0,-3.043628931E-1,9.397541046E0,4.041113377E0,1.023411021E1
2.082115365E0,-4.288613796E-1,9.476549149E0,4.093785763E0,1.033189178E1
2.084115365E0,-4.695627987E-1,9.529222488E0,4.096179962E0,1.038293122E1
2.086115365E0,-4.504092038E-1,9.553164482E0,4.043507576E0,1.038343747E1
2.088115365E0,-4.192845821E-1,9.555558205E0,3.964498758E0,1.035382744E1
2.090115365E0,-4.049193561E-1,9.555558205E0,3.890278578E0,1.032506270E1
2.092115365E0,-4.121019542E-1,9.560346603E0,3.832817554E0,1.030827559E1
2.094115365E0,-4.480150044E-1,9.565135002E0,3.796904564E0,1.030092274E1
2.096115365E0,-4.863222241E-1,9.569923401E0,3.787327766E0,1.030358165E1
2.098115365E0,-5.294178724E-1,9.581894875E0,3.792116165E0,1.031858215E1
2.100115365E0,-5.749076605E-1,9.598653793E0,3.796904564E0,1.033833438E1
2.102115365E0,-5.892729163E-1,9.608230591E0,3.784933567E0,1.034364828E1
2.104115365E0,-5.725134611E-1,9.603442192E0,3.756203175E0,1.032777497E1
2.106115365E0,-5.581482649E-1,9.584288597E0,3.710713387E0,1.029269213E1
2.108115365E0,-5.461772680E-1,9.545981407E0,3.670011997E0,1.024173124E1
2.110115365E0,-5.222352743E-1,9.502885818E0,3.645770550E0,1.019162457E1
2.112115365E0,-5.030816197E-1,9.469367027E0,3.645770550E0,1.015941169E1
2.114115365E0,-4.935048223E-1,9.447818756E0,3.643376350E0,1.013799869E1
2.116115365E0,-4.982932210E-1,9.431059837E0,3.636193752E0,1.012003413E1
2.118115365E0,-4.982932210E-1,9.411906242E0,3.624222755E0,1.009788423E1
2.120115365E0,-4.863222241E-1,9.395146370E0,3.614645958E0,1.007824142E1
2.122115365E0,-4.671685994E-1,9.385569572E0,3.600280762E0,1.006325913E1
2.124115365E0,-4.528034031E-1,9.378387451E0,3.585915565E0,1.005076975E1
2.126115365E0,-4.408323765E-1,9.371204376E0,3.566761971E0,1.003671239E1
2.128115365E0,-4.384381771E-1,9.366415977E0,3.545214176E0,1.002449599E1
2.130115365E0,-4.551976025E-1,9.371204376E0,3.533243179E0,1.002549169E1
2.132115365E0,-4.695627987E-1,9.371204376E0,3.528454781E0,1.002446776E1
2.134115365E0,-4.863222241E-1,9.354445457E0,3.530848980E0,1.001044722E1
2.136115365E0,-5.006874204E-1,9.337685585E0,3.530848980E0,9.995496711E0
2.138115365E0,-5.102642179E-1,9.325715065E0,3.533243179E0,9.985646620E0
2.140115365E0,-5.246294737E-1,9.316138268E0,3.535637379E0,9.978296447E0
2.142115365E0,-5.557540655E-1,9.311349869E0,3.552396774E0,9.981463911E0
2.144115365E0,-5.916671157E-1,9.313743591E0,3.578732967E0,9.995159794E0
2.146115365E0,-6.156091094E-1,9.323320389E0,3.612251759E0,1.001756659E1
2.148115365E0,-6.203975081E-1,9.332897186E0,3.640982151E0,1.003716165E1
2.150115365E0,-6.275801063E-1,9.330503464E0,3.662829399E0,1.004332967E1
2.152115365E0,-6.419453025E-1,9.325715065E0,3.672406197E0,1.004328744E1
2.154115365E0,-6.515221596E-1,9.325715065E0,3.670011997E0,1.004302896E1
2.156115365E0,-6.443395615E-1,9.320926666E0,3.662829399E0,1.003549533E1
2.158115365E0,-6.251859069E-1,9.311349869E0,3.658041000E0,1.002363995E1
2.160115365E0,-6.012439132E-1,9.299378395E0,3.658041000E0,1.001105373E1
2.162115365E0,-5.701192617E-1,9.289801598E0,3.665223598E0,1.000296525E1
2.164115365E0,-5.318120718E-1,9.280224800E0,3.674800396E0,9.995476696E0
2.166115365E0,-4.982932210E-1,9.270648003E0,3.667617798E0,9.982215728E0
2.168115365E0,-4.647744000E-1,9.251194954E0,3.650858402E0,9.956374360E0
2.170115365E0,-4.360439777E-1,9.229647636E0,3.631405354E0,9.927921972E0
2.172115365E0,-4.073135555E-1,9.212887764E0,3.619434357E0,9.906740652E0
2.174115365E0,-3.761889338E-1,9.210494041E0,3.607463360E0,9.898914612E0
2.176115365E0,-3.474585116E-1,9.212887764E0,3.593098164E0,9.894866486E0
2.178115365E0,-3.163338900E-1,9.212887764E0,3.564367771E0,9.883424796E0
2.180115365E0,-2.876034677E-1,9.212887764E0,3.535637379E0,9.872221046E0
2.182115365E0,-2.609679997E-1,9.208099365E0,3.504512787E0,9.855902196E0
2.184115365E0,-2.394201756E-1,9.205705643E0,3.478176594E0,9.843782343E0
2.186115365E0,-2.274491638E-1,9.210494041E0,3.456628799E0,9.840386998E0
2.188115365E0,-2.154781520E-1,9.217676163E0,3.439869404E0,9.840969779E0
2.190115365E0,-2.011129409E-1,9.222464561E0,3.420715570E0,9.838475188E0
2.192115365E0,-1.915361285E-1,9.224859238E0,3.389590979E0,9.829752848E0
2.194115365E0,-1.867477298E-1,9.222464561E0,3.358466387E0,9.816721641E0
2.196115365E0,-1.915361285E-1,9.220070839E0,3.329735994E0,9.804770989E0
2.198115365E0,-2.011129409E-1,9.227252960E0,3.301005602E0,9.802003958E0
2.200115365E0,-2.154781520E-1,9.234436035E0,3.274669409E0,9.800239765E0
2.202115365E0,-2.250549644E-1,9.234436035E0,3.253121614E0,9.793276207E0
2.204115365E0,-2.178723514E-1,9.229647636E0,3.241150618E0,9.784626778E0
2.206115365E0,-1.963245422E-1,9.222464561E0,3.243544817E0,9.778188937E0
2.208115365E0,-1.915361285E-1,9.217676163E0,3.224391222E0,9.767238027E0
2.210115365E0,-2.082955539E-1,9.224859238E0,3.174112797E0,9.757889477E0
2.212115365E0,-2.370259613E-1,9.232041359E0,3.126228809E0,9.749875667E0
2.214115365E0,-2.609679997E-1,9.234436035E0,3.104681015E0,9.745868734E0
2.216115365E0,-2.609679997E-1,9.232041359E0,3.099892616E0,9.742075045E0
2.218115365E0,-2.513911724E-1,9.234436035E0,3.097498417E0,9.743331199E0
2.220115365E0,-2.466027737E-1,9.246406555E0,3.102286816E0,9.756076599E0
2.222115365E0,-2.561795712E-1,9.255983353E0,3.114257812E0,9.769209667E0
2.224115365E0,-2.681505978E-1,9.253589630E0,3.126228809E0,9.771086549E0
2.226115365E0,-2.777273953E-1,9.248801231E0,3.140594006E0,9.771427093E0
2.228115365E0,-2.876034677E-1,9.253589630E0,3.154959202E0,9.780869305E0
2.230115365E0,-2.971802950E-1,9.258378029E0,3.174112797E0,9.791877854E0
2.232115365E0,-3.043628931E-1,9.258378029E0,3.200449228E0,9.800667108E0
2.234115365E0,-3.139396906E-1,9.255983353E0,3.229179621E0,9.808128617E0
2.236115365E0,-3.306991160E-1,9.253589630E0,3.245939016E0,9.811952051E0
2.238115365E0,-3.450643122E-1,9.244012833E0,3.257910013E0,9.807386007E0
2.240115365E0,-3.522469103E-1,9.236829758E0,3.277063608E0,9.807254853E0
2.242115365E0,-3.522469103E-1,9.232041359E0,3.291428804E0,9.807556735E0
2.244115365E0,-3.450643122E-1,9.232041359E0,3.301005602E0,9.810519610E0
2.246115365E0,-3.426701128E-1,9.232041359E0,3.310582399E0,9.813662226E0
2.248115365E0,-3.522469103E-1,9.234436035E0,3.301005602E0,9.813028317E0
2.250115365E0,-3.618237376E-1,9.241618156E0,3.291428804E0,9.816920400E0
2.252115365E0,-3.761889338E-1,9.248801231E0,3.286640406E0,9.822619177E0
2.254115365E0,-3.953425586E-1,9.258378029E0,3.279457808E0,9.829989978E0
2.256115365E0,-4.192845821E-1,9.273042679E0,3.262698412E0,9.839223598E0
2.258115365E0,-4.408323765E-1,9.287407875E0,3.248333216E0,9.848956640E0
2.260115365E0,-4.480150044E-1,9.296984673E0,3.238756418E0,9.855160302E0
2.262115365E0,-4.336497784E-1,9.304166794E0,3.224391222E0,9.856585139E0
2.264115365E0,-4.192845821E-1,9.308955193E0,3.198055029E0,9.851903486E0
2.266115365E0,-4.025251567E-1,9.313743591E0,3.166930199E0,9.845673825E0
2.268115365E0,-3.881599605E-1,9.325715065E0,3.138199806E0,9.847229440E0
2.270115365E0,-3.785831332E-1,9.332897186E0,3.104681015E0,9.843035065E0
2.272115365E0,-3.761889338E-1,9.332897186E0,3.058892012E0,9.828596458E0
2.274115365E0,-3.761889338E-1,9.330503464E0,3.020584822E0,9.814466143E0
2.276115365E0,-3.714005351E-1,9.323320389E0,3.001430988E0,9.801572803E0
2.278115365E0,-3.618237376E-1,9.318531990E0,2.991854191E0,9.793729952E0
2.280115365E0,-3.546411395E-1,9.318531990E0,2.977488995E0,9.789088287E0
2.282115365E0,-3.546411395E-1,9.311349869E0,2.958335400E0,9.776438772E0
2.284115365E0,-3.594295382E-1,9.304166794E0,2.943970203E0,9.765432396E0
2.286115365E0,-3.546411395E-1,9.296984673E0,2.922422409E0,9.751935555E0
2.288115365E0,-3.426701128E-1,9.294589996E0,2.900874615E0,9.742787052E0
2.290115365E0,-3.187280893E-1,9.294589996E0,2.884115219E0,9.736997042E0
2.292115365E0,-2.852092683E-1,9.289801598E0,2.869750023E0,9.727138492E0
2.294115365E0,-2.537853718E-1,9.287407875E0,2.857779026E0,9.720455391E0
2.296115365E0,-2.346317619E-1,9.285013199E0,2.850596428E0,9.715576265E0
2.298115365E0,-2.154781520E-1,9.282619476E0,2.848202229E0,9.712142457E0
2.300115365E0,-1.987187415E-1,9.285013199E0,2.852990627E0,9.715478103E0
2.302115365E0,-1.843535304E-1,9.287407875E0,2.862567425E0,9.720299559E0
2.304115365E0,-1.651999205E-1,9.292196274E0,2.876932621E0,9.728768879E0
2.306115365E0,-1.388636976E-1,9.296984673E0,2.886509418E0,9.735766213E0
2.308115365E0,-1.173158810E-1,9.301773071E0,2.893692017E0,9.742186550E0
2.310115365E0,-1.005564705E-1,9.306561470E0,2.898480415E0,9.747993984E0
2.312115365E0,-8.619125932E-2,9.304166794E0,2.893692017E0,9.744147071E0
2.314115365E0,-7.182604820E-2,9.304166794E0,2.896086216E0,9.744741868E0
2.316115365E0,-7.182604820E-2,9.301773071E0,2.900874615E0,9.743880889E0
2.318115365E0,-7.900865376E-2,9.289801598E0,2.915239811E0,9.736800257E0
2.320115365E0,-8.379705995E-2,9.282619476E0,2.924816608E0,9.732861783E0
2.322115365E0,-7.900865376E-2,9.285013199E0,2.939181805E0,9.739430279E0
2.324115365E0,-6.943184882E-2,9.289801598E0,2.951152802E0,9.747540067E0
2.326115365E0,-6.224924326E-2,9.292196274E0,2.963123798E0,9.753403980E0
2.328115365E0,-5.027823523E-2,9.287407875E0,2.984671593E0,9.755344046E0
2.330115365E0,-4.548983276E-2,9.287407875E0,3.011008024E0,9.763410454E0
2.332115365E0,-5.506663769E-2,9.294589996E0,3.022979021E0,9.773987809E0
2.334115365E0,-6.943184882E-2,9.301773071E0,3.032555819E0,9.783874378E0
2.336115365E0,-8.858546615E-2,9.316138268E0,3.046921015E0,9.802142994E0
2.338115365E0,-9.816227108E-2,9.332897186E0,3.073257208E0,9.826368382E0
2.340115365E0,-9.097966552E-2,9.337685585E0,3.111863613E0,9.842984534E0
2.342115365E0,-7.900865376E-2,9.344868660E0,3.159747601E0,9.864928664E0
2.344115365E0,-7.182604820E-2,9.342473984E0,3.214814425E0,9.880385160E0
2.346115365E0,-5.746084079E-2,9.330503464E0,3.257910013E0,9.883095380E0
2.348115365E0,-4.070143029E-2,9.323320389E0,3.277063608E0,9.882565738E0
2.350115365E0,-3.591302410E-2,9.320926666E0,3.281852007E0,9.881878175E0
2.352115365E0,-3.591302410E-2,9.320926666E0,3.279457808E0,9.881083300E0
2.354115365E0,-4.070143029E-2,9.313743591E0,3.272275209E0,9.871943139E0
2.356115365E0,-4.548983276E-2,9.296984673E0,3.269881010E0,9.855359717E0
2.358115365E0,-5.027823523E-2,9.282619476E0,3.262698412E0,9.839448825E0
2.360115365E0,-6.224924326E-2,9.270648003E0,3.245939016E0,9.822673234E0
2.362115365E0,-6.943184882E-2,9.265859604E0,3.229179621E0,9.812674253E0
2.364115365E0,-6.943184882E-2,9.263166428E0,3.210026026E0,9.803843131E0
2.366115365E0,-6.464344263E-2,9.260771751E0,3.183689594E0,9.792954183E0
2.368115365E0,-6.464344263E-2,9.255983353E0,3.152565002E0,9.778347135E0
2.370115365E0,-6.943184882E-2,9.260771751E0,3.111863613E0,9.769872536E0
2.372115365E0,-8.140286058E-2,9.263166428E0,3.063680410E0,9.756998327E0
2.374115365E0,-9.337386489E-2,9.265859604E0,3.020584822E0,9.746220064E0
2.376115365E0,-1.029506698E-1,9.260771751E0,2.989459991E0,9.731873577E0
2.378115365E0,-1.197100878E-1,9.260771751E0,2.963123798E0,9.724007743E0
2.380115365E0,-1.508347094E-1,9.263166428E0,2.946364403E0,9.721628802E0
2.382115365E0,-1.795651317E-1,9.258378029E0,2.939181805E0,9.715379408E0
2.384115365E0,-2.082955539E-1,9.255983353E0,2.943970203E0,9.715120968E0
2.386115365E0,-2.298433632E-1,9.255983353E0,2.946364403E0,9.716332590E0
2.388115365E0,-2.489969730E-1,9.255983353E0,2.941576004E0,9.715353658E0
2.390115365E0,-2.561795712E-1,9.255983353E0,2.936787605E0,9.714091684E0
2.392115365E0,-2.537853718E-1,9.260771751E0,2.927210808E0,9.715701908E0
2.394115365E0,-2.489969730E-1,9.263166428E0,2.915239811E0,9.714261419E0
2.396115365E0,-2.466027737E-1,9.263166428E0,2.896086216E0,9.708469527E0
2.398115365E0,-2.561795712E-1,9.270648003E0,2.864961624E0,9.706623897E0
2.400115365E0,-2.609679997E-1,9.273042679E0,2.833837032E0,9.699899852E0
2.402115365E0,-2.681505978E-1,9.268254280E0,2.807500839E0,9.687853380E0
2.404115365E0,-2.828150690E-1,9.263166428E0,2.781164646E0,9.675800402E0
2.406115365E0,-2.971802950E-1,9.260771751E0,2.750039816E0,9.665036397E0
2.408115365E0,-3.115454912E-1,9.260771751E0,2.728492022E0,9.659380039E0
2.410115365E0,-3.306991160E-1,9.263166428E0,2.716521025E0,9.658938899E0
2.412115365E0,-3.498527110E-1,9.258378029E0,2.694973230E0,9.648981364E0
2.414115365E0,-3.570353389E-1,9.251194954E0,2.675819635E0,9.637016812E0
2.416115365E0,-3.618237376E-1,9.248801231E0,2.654271841E0,9.628935540E0
2.418115365E0,-3.761889338E-1,9.253589630E0,2.625541449E0,9.626209381E0
2.420115365E0,-3.881599605E-1,9.263166428E0,2.594416857E0,9.627456531E0
2.422115365E0,-3.809773326E-1,9.270648003E0,2.563292265E0,9.626033729E0
2.424115365E0,-3.666121364E-1,9.273042679E0,2.534561872E0,9.620173017E0
2.426115365E0,-3.546411395E-1,9.277831078E0,2.510320425E0,9.617984637E0
2.428115365E0,-3.402759135E-1,9.280224800E0,2.476801634E0,9.611082477E0
2.430115365E0,-3.259107172E-1,9.285013199E0,2.445677042E0,9.607238109E0
2.432115365E0,-3.306991160E-1,9.277831078E0,2.419340849E0,9.593785569E0
2.434115365E0,-3.546411395E-1,9.270648003E0,2.407369852E0,9.584681233E0
2.436115365E0,-3.761889338E-1,9.263166428E0,2.404975653E0,9.577665596E0
2.438115365E0,-3.929483593E-1,9.265859604E0,2.412158251E0,9.582748564E0
2.440115365E0,-4.121019542E-1,9.273042679E0,2.428917646E0,9.594727171E0
2.442115365E0,-4.408323765E-1,9.282619476E0,2.448071241E0,9.610120204E0
2.444115365E0,-4.815338254E-1,9.285013199E0,2.460042238E0,9.617440031E0
2.446115365E0,-5.318120718E-1,9.285013199E0,2.304419041E0,9.581473858E0
2.448115365E0,-5.749076605E-1,9.292196274E0,1.894711375E0,9.500808471E0
2.450115365E0,-6.227917075E-1,9.294589996E0,1.499668121E0,9.435373717E0
2.452115365E0,-6.778583527E-1,9.306561470E0,1.408688426E0,9.436947675E0
2.454115365E0,-7.137714028E-1,9.330503464E0,1.631349206E0,9.498898080E0
2.456115365E0,-7.185598016E-1,9.349657059E0,2.014720678E0,9.591220710E0
2.458115365E0,-6.994061470E-1,9.364022255E0,2.381033659E0,9.687280477E0
2.460115365E0,-6.874351501E-1,9.364022255E0,2.644695044E0,9.754583115E0
2.462115365E0,-6.922235489E-1,9.361627579E0,2.797924042E0,9.795285770E0
2.464115365E0,-7.113772035E-1,9.364022255E0,2.874538422E0,9.821096754E0
2.466115365E0,-7.377133965E-1,9.364022255E0,2.900874615E0,9.830778574E0
2.468115365E0,-7.616553903E-1,9.366415977E0,2.912845612E0,9.838421456E0
2.470115365E0,-7.855974436E-1,9.364022255E0,2.948758602E0,9.848718365E0
2.472115365E0,-7.975684404E-1,9.347262383E0,3.020584822E0,9.855524447E0
2.474115365E0,-7.999626398E-1,9.330503464E0,3.119046211E0,9.870495650E0
2.476115365E0,-8.071452379E-1,9.318531990E0,3.229179621E0,9.895156538E0
2.478115365E0,-8.215104342E-1,9.311349869E0,3.334524393E0,9.924473220E0
2.480115365E0,-8.358756900E-1,9.304166794E0,3.423109770E0,9.949064699E0
2.482115365E0,-8.382698894E-1,9.294589996E0,3.492541790E0,9.964434142E0
2.484115365E0,-8.334814906E-1,9.289801598E0,3.542819977E0,9.977308179E0
2.486115365E0,-8.334814906E-1,9.285013199E0,3.576338768E0,9.984806482E0
2.488115365E0,-8.262988329E-1,9.289801598E0,3.602674961E0,9.998122342E0
2.490115365E0,-8.095394373E-1,9.294589996E0,3.624222755E0,1.000898336E1
2.492115365E0,-7.903858423E-1,9.301773071E0,3.636193752E0,1.001846281E1
2.494115365E0,-7.736264467E-1,9.296984673E0,3.633799553E0,1.001183905E1
2.496115365E0,-7.712322474E-1,9.287407875E0,3.626616955E0,1.000015474E1
2.498115365E0,-7.784148455E-1,9.294589996E0,3.609857559E0,1.000132014E1
2.500115365E0,-7.903858423E-1,9.308955193E0,3.554790974E0,9.995893928E0
2.502115365E0,-8.047510386E-1,9.316138268E0,3.478176594E0,9.976761442E0
2.504115365E0,-8.191162348E-1,9.318531990E0,3.382408381E0,9.947194394E0
2.506115365E0,-8.262988329E-1,9.316138268E0,3.267486811E0,9.907051632E0
2.508115365E0,-8.239046335E-1,9.308955193E0,3.116652012E0,9.851344344E0
2.510115365E0,-8.119336367E-1,9.306561470E0,2.941576004E0,9.794089647E0
2.512115365E0,-8.023568392E-1,9.306561470E0,2.790741444E0,9.749056400E0
2.514115365E0,-7.927800417E-1,9.311349869E0,2.687790632E0,9.723885800E0
2.516115365E0,-7.832032442E-1,9.316138268E0,2.618358850E0,9.708740527E0
2.518115365E0,-7.736264467E-1,9.318531990E0,2.565686464E0,9.696199429E0
2.520115365E0,-7.616553903E-1,9.328108788E0,2.519897223E0,9.692451418E0
2.522115365E0,-7.425017953E-1,9.344868660E0,2.481590033E0,9.697224772E0
2.524115365E0,-7.209540009E-1,9.354445457E0,2.460042238E0,9.699341849E0
2.526115365E0,-7.065888047E-1,9.354445457E0,2.445677042E0,9.694650780E0
2.528115365E0,-6.922235489E-1,9.359233856E0,2.438494444E0,9.696426505E0
2.530115365E0,-6.730699539E-1,9.373599052E0,2.445677042E0,9.710752728E0
2.532115365E0,-6.563105583E-1,9.385569572E0,2.460042238E0,9.724786248E0
